File: data/XRD/sample_6.xy
10.00010 600.000
10.05019 611.000
10.10027 601.000
10.15036 625.000
10.20045 585.000
10.25054 602.000
10.30062 598.000
10.35071 609.000
10.40080 551.000
10.45089 569.000
10.50097 581.000
10.55106 561.000
10.60115 564.000
10.65123 581.000
10.70132 552.000
10.75141 533.000
10.80150 549.000
10.85158 528.000
10.90167 529.000
10.95176 526.000
11.00184 553.000
11.05193 521.000
11.10202 608.000
11.15211 582.000
11.20219 539.000
11.25228 548.000
11.30237 566.000
11.35246 550.000
11.40254 578.000
11.45263 560.000
11.50272 559.000
11.55280 551.000
11.60289 533.000
11.65298 571.000
11.70307 519.000
11.75315 599.000
11.80324 522.000
11.85333 577.000
11.90342 546.000
11.95350 554.000
12.00359 577.000
12.05368 536.000
12.10376 561.000
12.15385 572.000
12.20394 530.000
12.25403 525.000
12.30411 578.000
12.35420 514.000
12.40429 546.000
12.45437 515.000
12.50446 554.000
12.55455 523.000
12.60464 563.000
12.65472 545.000
12.70481 572.000
12.75490 530.000
12.80499 622.000
12.85507 548.000
12.90516 516.000
12.95525 558.000
13.00533 572.000
13.05542 529.000
13.10551 548.000
13.15560 524.000
13.20568 561.000
13.25577 514.000
13.30586 514.000
13.35595 516.000
13.40603 489.000
13.45612 539.000
13.50621 580.000
13.55629 499.000
13.60638 536.000
13.65647 562.000
13.70656 502.000
13.75664 522.000
13.80673 499.000
13.85682 582.000
13.90690 496.000
13.95699 531.000
14.00708 532.000
14.05717 593.000
14.10725 574.000
14.15734 646.000
14.20743 831.000
14.25752 1508.000
14.30760 3309.000
14.35769 2721.000
14.40778 1084.000
14.45786 695.000
14.50795 635.000
14.55804 583.000
14.60813 504.000
14.65821 528.000
14.70830 465.000
14.75839 517.000
14.80848 469.000
14.85856 474.000
14.90865 476.000
14.95874 457.000
15.00882 479.000
15.05891 457.000
15.10900 467.000
15.15909 462.000
15.20917 458.000
15.25926 457.000
15.30935 479.000
15.35943 425.000
15.40952 474.000
15.45961 424.000
15.50970 445.000
15.55978 489.000
15.60987 436.000
15.65996 487.000
15.71005 461.000
15.76013 468.000
15.81022 485.000
15.86031 449.000
15.91039 434.000
15.96048 436.000
16.01057 446.000
16.06066 452.000
16.11074 420.000
16.16083 429.000
16.21092 426.000
16.26101 460.000
16.31109 434.000
16.36118 433.000
16.41127 427.000
16.46135 476.000
16.51144 454.000
16.56153 426.000
16.61162 439.000
16.66170 431.000
16.71179 487.000
16.76188 396.000
16.81196 446.000
16.86205 400.000
16.91214 436.000
16.96223 415.000
17.01231 447.000
17.06240 443.000
17.11249 441.000
17.16258 410.000
17.21266 468.000
17.26275 480.000
17.31284 437.000
17.36292 414.000
17.41301 434.000
17.46310 440.000
17.51319 496.000
17.56327 422.000
17.61336 442.000
17.66345 451.000
17.71353 460.000
17.76362 470.000
17.81371 460.000
17.86380 438.000
17.91388 435.000
17.96397 404.000
18.01406 436.000
18.06415 442.000
18.11423 448.000
18.16432 444.000
18.21441 439.000
18.26449 485.000
18.31458 454.000
18.36467 483.000
18.41476 481.000
18.46484 436.000
18.51493 433.000
18.56502 466.000
18.61511 531.000
18.66519 453.000
18.71528 499.000
18.76537 438.000
18.81545 507.000
18.86554 489.000
18.91563 506.000
18.96572 478.000
19.01580 507.000
19.06589 525.000
19.11598 493.000
19.16606 495.000
19.21615 468.000
19.26624 498.000
19.31633 513.000
19.36641 486.000
19.41650 486.000
19.46659 510.000
19.51668 475.000
19.56676 506.000
19.61685 518.000
19.66694 509.000
19.71702 536.000
19.76711 503.000
19.81720 496.000
19.86729 563.000
19.91737 483.000
19.96746 511.000
20.01755 561.000
20.06764 539.000
20.11772 595.000
20.16781 687.000
20.21790 629.000
20.26798 576.000
20.31807 548.000
20.36816 567.000
20.41825 548.000
20.46833 570.000
20.51842 553.000
20.56851 558.000
20.61859 562.000
20.66868 548.000
20.71877 542.000
20.76886 528.000
20.81894 588.000
20.86903 597.000
20.91912 587.000
20.96921 571.000
21.01929 586.000
21.06938 607.000
21.11947 590.000
21.16955 570.000
21.21964 610.000
21.26973 600.000
21.31982 600.000
21.36990 547.000
21.41999 625.000
21.47008 603.000
21.52017 624.000
21.57025 591.000
21.62034 571.000
21.67043 597.000
21.72051 620.000
21.77060 594.000
21.82069 574.000
21.87078 635.000
21.92086 623.000
21.97095 644.000
22.02104 632.000
22.07112 606.000
22.12121 689.000
22.17130 639.000
22.22139 601.000
22.27147 583.000
22.32156 605.000
22.37165 628.000
22.42174 570.000
22.47182 622.000
22.52191 581.000
22.57200 618.000
22.62208 630.000
22.67217 620.000
22.72226 620.000
22.77235 596.000
22.82243 596.000
22.87252 648.000
22.92261 590.000
22.97270 575.000
23.02278 573.000
23.07287 616.000
23.12296 647.000
23.17304 637.000
23.22313 599.000
23.27322 651.000
23.32331 609.000
23.37339 617.000
23.42348 630.000
23.47357 610.000
23.52365 650.000
23.57374 620.000
23.62383 604.000
23.67392 617.000
23.72400 588.000
23.77409 642.000
23.82418 593.000
23.87427 624.000
23.92435 579.000
23.97444 614.000
24.02453 628.000
24.07461 616.000
24.12470 625.000
24.17479 598.000
24.22488 643.000
24.27496 581.000
24.32505 588.000
24.37514 564.000
24.42523 615.000
24.47531 616.000
24.52540 634.000
24.57549 644.000
24.62557 736.000
24.67566 1137.000
24.72575 1049.000
24.77584 814.000
24.82592 664.000
24.87601 601.000
24.92610 606.000
24.97618 625.000
25.02627 609.000
25.07636 580.000
25.12645 531.000
25.17653 625.000
25.22662 605.000
25.27671 596.000
25.32680 582.000
25.37688 612.000
25.42697 559.000
25.47706 598.000
25.52714 586.000
25.57723 557.000
25.62732 575.000
25.67741 541.000
25.72749 601.000
25.77758 567.000
25.82767 567.000
25.87776 505.000
25.92784 603.000
25.97793 572.000
26.02802 568.000
26.07810 542.000
26.12819 546.000
26.17828 537.000
26.22837 542.000
26.27845 558.000
26.32854 552.000
26.37863 589.000
26.42871 556.000
26.47880 591.000
26.52889 526.000
26.57898 557.000
26.62906 504.000
26.67915 521.000
26.72924 562.000
26.77933 556.000
26.82941 502.000
26.87950 524.000
26.92959 484.000
26.97967 505.000
27.02976 524.000
27.07985 528.000
27.12994 508.000
27.18002 512.000
27.23011 515.000
27.28020 510.000
27.33029 487.000
27.38037 502.000
27.43046 494.000
27.48055 465.000
27.53063 477.000
27.58072 519.000
27.63081 491.000
27.68090 522.000
27.73098 471.000
27.78107 488.000
27.83116 461.000
27.88124 464.000
27.93133 484.000
27.98142 505.000
28.03151 463.000
28.08159 447.000
28.13168 511.000
28.18177 524.000
28.23186 500.000
28.28194 505.000
28.33203 589.000
28.38212 562.000
28.43220 600.000
28.48229 750.000
28.53238 1655.000
28.58247 1870.000
28.63255 1389.000
28.68264 757.000
28.73273 574.000
28.78282 528.000
28.83290 506.000
28.88299 451.000
28.93308 432.000
28.98316 469.000
29.03325 420.000
29.08334 413.000
29.13343 423.000
29.18351 448.000
29.23360 444.000
29.28369 458.000
29.33377 423.000
29.38386 426.000
29.43395 406.000
29.48404 391.000
29.53412 416.000
29.58421 392.000
29.63430 395.000
29.68439 382.000
29.73447 372.000
29.78456 428.000
29.83465 375.000
29.88473 398.000
29.93482 402.000
29.98491 371.000
30.03500 387.000
30.08508 390.000
30.13517 375.000
30.18526 398.000
30.23534 390.000
30.28543 386.000
30.33552 417.000
30.38561 392.000
30.43569 387.000
30.48578 361.000
30.53587 362.000
30.58596 395.000
30.63604 355.000
30.68613 396.000
30.73622 359.000
30.78630 379.000
30.83639 381.000
30.88648 403.000
30.93657 357.000
30.98665 354.000
31.03674 384.000
31.08683 379.000
31.13692 386.000
31.18700 341.000
31.23709 393.000
31.28718 354.000
31.33726 370.000
31.38735 352.000
31.43744 356.000
31.48753 392.000
31.53761 319.000
31.58770 355.000
31.63779 342.000
31.68787 335.000
31.73796 356.000
31.78805 361.000
31.83814 397.000
31.88822 461.000
31.93831 679.000
31.98840 867.000
32.03849 604.000
32.08857 484.000
32.13866 376.000
32.18875 352.000
32.23883 369.000
32.28892 339.000
32.33901 334.000
32.38910 351.000
32.43918 335.000
32.48927 324.000
32.53936 318.000
32.58945 348.000
32.63953 309.000
32.68962 321.000
32.73971 312.000
32.78979 312.000
32.83988 323.000
32.88997 309.000
32.94006 323.000
32.99014 295.000
33.04023 332.000
33.09032 302.000
33.14040 301.000
33.19049 285.000
33.24058 320.000
33.29067 306.000
33.34075 291.000
33.39084 311.000
33.44093 267.000
33.49102 269.000
33.54110 274.000
33.59119 291.000
33.64128 302.000
33.69136 297.000
33.74145 299.000
33.79154 289.000
33.84163 284.000
33.89171 264.000
33.94180 278.000
33.99189 273.000
34.04198 291.000
34.09206 294.000
34.14215 279.000
34.19224 285.000
34.24232 251.000
34.29241 299.000
34.34250 280.000
34.39259 255.000
34.44267 263.000
34.49276 276.000
34.54285 242.000
34.59293 274.000
34.64302 287.000
34.69311 223.000
34.74320 262.000
34.79328 272.000
34.84337 265.000
34.89346 266.000
34.94355 239.000
34.99363 278.000
35.04372 269.000
35.09381 314.000
35.14389 263.000
35.19398 259.000
35.24407 278.000
35.29416 261.000
35.34424 259.000
35.39433 248.000
35.44442 259.000
35.49451 221.000
35.54459 266.000
35.59468 218.000
35.64477 242.000
35.69485 253.000
35.74494 234.000
35.79503 281.000
35.84512 216.000
35.89520 253.000
35.94529 230.000
35.99538 266.000
36.04546 256.000
36.09555 223.000
36.14564 241.000
36.19573 256.000
36.24581 238.000
36.29590 229.000
36.34599 242.000
36.39608 224.000
36.44616 228.000
36.49625 215.000
36.54634 239.000
36.59642 226.000
36.64651 230.000
36.69660 234.000
36.74669 231.000
36.79677 225.000
36.84686 255.000
36.89695 237.000
36.94704 223.000
36.99712 234.000
37.04721 229.000
37.09730 216.000
37.14738 226.000
37.19747 237.000
37.24756 233.000
37.29765 208.000
37.34773 236.000
37.39782 226.000
37.44791 210.000
37.49799 233.000
37.54808 215.000
37.59817 206.000
37.64826 245.000
37.69834 234.000
37.74843 217.000
37.79852 242.000
37.84861 228.000
37.89869 223.000
37.94878 254.000
37.99887 203.000
38.04895 227.000
38.09904 235.000
38.14913 210.000
38.19922 189.000
38.24930 207.000
38.29939 226.000
38.34948 187.000
38.39957 214.000
38.44965 214.000
38.49974 219.000
38.54983 192.000
38.59991 216.000
38.65000 222.000
38.70009 184.000
38.75018 216.000
38.80026 218.000
38.85035 215.000
38.90044 233.000
38.95052 221.000
39.00061 211.000
39.05070 218.000
39.10079 212.000
39.15087 228.000
39.20096 199.000
39.25105 224.000
39.30114 236.000
39.35122 200.000
39.40131 218.000
39.45140 198.000
39.50148 238.000
39.55157 219.000
39.60166 195.000
39.65175 225.000
39.70183 218.000
39.75192 224.000
39.80201 224.000
39.85210 193.000
39.90218 221.000
39.95227 181.000
40.00236 221.000
40.05244 205.000
40.10253 222.000
40.15262 222.000
40.20271 252.000
40.25279 222.000
40.30288 230.000
40.35297 246.000
40.40305 249.000
40.45314 275.000
40.50323 279.000
40.55332 352.000
40.60340 445.000
40.65349 676.000
40.70358 665.000
40.75367 501.000
40.80375 395.000
40.85384 301.000
40.90393 254.000
40.95401 253.000
41.00410 228.000
41.05419 258.000
41.10428 227.000
41.15436 234.000
41.20445 201.000
41.25454 216.000
41.30463 211.000
41.35471 205.000
41.40480 238.000
41.45489 223.000
41.50497 210.000
41.55506 252.000
41.60515 202.000
41.65524 229.000
41.70532 220.000
41.75541 191.000
41.80550 214.000
41.85558 223.000
41.90567 226.000
41.95576 236.000
42.00585 216.000
42.05593 226.000
42.10602 230.000
42.15611 213.000
42.20620 205.000
42.25628 198.000
42.30637 215.000
42.35646 210.000
42.40654 238.000
42.45663 231.000
42.50672 216.000
42.55681 218.000
42.60689 220.000
42.65698 229.000
42.70707 226.000
42.75716 208.000
42.80724 237.000
42.85733 219.000
42.90742 247.000
42.95750 225.000
43.00759 234.000
43.05768 249.000
43.10777 249.000
43.15785 299.000
43.20794 349.000
43.25803 367.000
43.30811 308.000
43.35820 321.000
43.40829 263.000
43.45838 218.000
43.50846 239.000
43.55855 240.000
43.60864 217.000
43.65873 203.000
43.70881 225.000
43.75890 191.000
43.80899 211.000
43.85907 223.000
43.90916 237.000
43.95925 256.000
44.00934 208.000
44.05942 221.000
44.10951 217.000
44.15960 215.000
44.20968 214.000
44.25977 231.000
44.30986 220.000
44.35995 210.000
44.41003 213.000
44.46012 192.000
44.51021 226.000
44.56030 208.000
44.61038 228.000
44.66047 215.000
44.71056 205.000
44.76064 239.000
44.81073 234.000
44.86082 216.000
44.91091 213.000
44.96099 196.000
45.01108 221.000
45.06117 190.000
45.11126 223.000
45.16134 207.000
45.21143 194.000
45.26152 197.000
45.31160 238.000
45.36169 201.000
45.41178 236.000
45.46187 213.000
45.51195 206.000
45.56204 225.000
45.61213 216.000
45.66221 226.000
45.71230 248.000
45.76239 208.000
45.81248 234.000
45.86256 207.000
45.91265 231.000
45.96274 185.000
46.01283 195.000
46.06291 190.000
46.11300 208.000
46.16309 210.000
46.21317 210.000
46.26326 188.000
46.31335 190.000
46.36344 176.000
46.41352 217.000
46.46361 192.000
46.51370 210.000
46.56379 212.000
46.61387 212.000
46.66396 179.000
46.71405 203.000
46.76413 198.000
46.81422 200.000
46.86431 202.000
46.91440 209.000
46.96448 183.000
47.01457 220.000
47.06466 193.000
47.11474 206.000
47.16483 179.000
47.21492 221.000
47.26501 196.000
47.31509 212.000
47.36518 205.000
47.41527 213.000
47.46536 207.000
47.51544 191.000
47.56553 193.000
47.61562 171.000
47.66570 211.000
47.71579 214.000
47.76588 230.000
47.81597 213.000
47.86605 206.000
47.91614 181.000
47.96623 204.000
48.01632 236.000
48.06640 204.000
48.11649 204.000
48.16658 213.000
48.21666 207.000
48.26675 192.000
48.31684 204.000
48.36693 195.000
48.41701 194.000
48.46710 192.000
48.51719 200.000
48.56727 207.000
48.61736 166.000
48.66745 198.000
48.71754 175.000
48.76762 187.000
48.81771 186.000
48.86780 207.000
48.91789 192.000
48.96797 170.000
49.01806 182.000
49.06815 180.000
49.11823 197.000
49.16832 195.000
49.21841 204.000
49.26850 187.000
49.31858 174.000
49.36867 179.000
49.41876 190.000
49.46885 183.000
49.51893 173.000
49.56902 175.000
49.61911 182.000
49.66919 184.000
49.71928 195.000
49.76937 177.000
49.81946 211.000
49.86954 187.000
49.91963 183.000
49.96972 182.000
50.01980 185.000
50.06989 181.000
50.11998 176.000
50.17007 184.000
50.22015 220.000
50.27024 202.000
50.32033 227.000
50.37042 214.000
50.42050 200.000
50.47059 206.000
50.52068 166.000
50.57076 188.000
50.62085 172.000
50.67094 203.000
50.72103 175.000
50.77111 171.000
50.82120 190.000
50.87129 156.000
50.92138 171.000
50.97146 186.000
51.02155 189.000
51.07164 163.000
51.12172 157.000
51.17181 190.000
51.22190 160.000
51.27199 184.000
51.32207 197.000
51.37216 165.000
51.42225 163.000
51.47233 172.000
51.52242 175.000
51.57251 187.000
51.62260 185.000
51.67268 175.000
51.72277 179.000
51.77286 173.000
51.82295 186.000
51.87303 163.000
51.92312 178.000
51.97321 156.000
52.02329 189.000
52.07338 204.000
52.12347 180.000
52.17356 221.000
52.22364 164.000
52.27373 183.000
52.32382 161.000
52.37391 175.000
52.42399 186.000
52.47408 200.000
52.52417 183.000
52.57425 188.000
52.62434 169.000
52.67443 166.000
52.72452 190.000
52.77460 166.000
52.82469 188.000
52.87478 157.000
52.92486 162.000
52.97495 162.000
53.02504 172.000
53.07513 164.000
53.12521 176.000
53.17530 144.000
53.22539 180.000
53.27548 157.000
53.32556 159.000
53.37565 177.000
53.42574 184.000
53.47582 184.000
53.52591 167.000
53.57600 176.000
53.62609 169.000
53.67617 195.000
53.72626 177.000
53.77635 184.000
53.82644 176.000
53.87652 159.000
53.92661 171.000
53.97670 187.000
54.02678 162.000
54.07687 172.000
54.12696 187.000
54.17705 157.000
54.22713 171.000
54.27722 161.000
54.32731 149.000
54.37739 155.000
54.42748 180.000
54.47757 173.000
54.52766 182.000
54.57774 167.000
54.62783 175.000
54.67792 152.000
54.72801 161.000
54.77809 184.000
54.82818 158.000
54.87827 169.000
54.92835 167.000
54.97844 173.000
55.02853 164.000
55.07862 164.000
55.12870 175.000
55.17879 168.000
55.22888 149.000
55.27897 150.000
55.32905 161.000
55.37914 168.000
55.42923 190.000
55.47931 182.000
55.52940 164.000
55.57949 169.000
55.62958 163.000
55.67966 158.000
55.72975 178.000
55.77984 178.000
55.82992 160.000
55.88001 158.000
55.93010 154.000
55.98019 169.000
56.03027 143.000
56.08036 157.000
56.13045 181.000
56.18054 159.000
56.23062 172.000
56.28071 170.000
56.33080 146.000
56.38088 168.000
56.43097 159.000
56.48106 148.000
56.53115 165.000
56.58123 181.000
56.63132 152.000
56.68141 169.000
56.73149 160.000
56.78158 154.000
56.83167 160.000
56.88176 176.000
56.93184 153.000
56.98193 181.000
57.03202 158.000
57.08211 169.000
57.13219 158.000
57.18228 167.000
57.23237 159.000
57.28245 145.000
57.33254 159.000
57.38263 164.000
57.43272 147.000
57.48280 159.000
57.53289 154.000
57.58298 155.000
57.63307 147.000
57.68315 151.000
57.73324 156.000
57.78333 166.000
57.83341 126.000
57.88350 178.000
57.93359 168.000
57.98368 168.000
58.03376 151.000
58.08385 171.000
58.13394 163.000
58.18402 161.000
58.23411 172.000
58.28420 155.000
58.33429 143.000
58.38437 144.000
58.43446 145.000
58.48455 175.000
58.53464 183.000
58.58472 158.000
58.63481 176.000
58.68490 174.000
58.73498 200.000
58.78507 196.000
58.83516 170.000
58.88525 177.000
58.93533 192.000
58.98542 174.000
59.03551 158.000
59.08560 164.000
59.13568 152.000
59.18577 140.000
59.23586 153.000
59.28594 159.000
59.33603 162.000
59.38612 176.000
59.43621 167.000
59.48629 159.000
59.53638 182.000
59.58647 162.000
59.63655 154.000
59.68664 153.000
59.73673 162.000
59.78682 149.000
59.83690 181.000
59.88699 157.000
59.93708 170.000
59.98717 163.000