File: data/XRD/sample_5.xy
10.00010 596.000
10.05019 574.000
10.10027 605.000
10.15036 595.000
10.20045 593.000
10.25054 542.000
10.30062 589.000
10.35071 543.000
10.40080 557.000
10.45089 577.000
10.50097 546.000
10.55106 569.000
10.60115 582.000
10.65123 563.000
10.70132 540.000
10.75141 557.000
10.80150 552.000
10.85158 570.000
10.90167 563.000
10.95176 576.000
11.00184 598.000
11.05193 581.000
11.10202 592.000
11.15211 515.000
11.20219 551.000
11.25228 575.000
11.30237 602.000
11.35246 559.000
11.40254 507.000
11.45263 586.000
11.50272 508.000
11.55280 567.000
11.60289 545.000
11.65298 530.000
11.70307 536.000
11.75315 572.000
11.80324 572.000
11.85333 547.000
11.90342 541.000
11.95350 568.000
12.00359 558.000
12.05368 516.000
12.10376 549.000
12.15385 532.000
12.20394 564.000
12.25403 553.000
12.30411 505.000
12.35420 508.000
12.40429 545.000
12.45437 529.000
12.50446 512.000
12.55455 559.000
12.60464 569.000
12.65472 590.000
12.70481 553.000
12.75490 528.000
12.80499 537.000
12.85507 579.000
12.90516 543.000
12.95525 606.000
13.00533 548.000
13.05542 539.000
13.10551 580.000
13.15560 554.000
13.20568 539.000
13.25577 572.000
13.30586 532.000
13.35595 483.000
13.40603 536.000
13.45612 525.000
13.50621 524.000
13.55629 524.000
13.60638 516.000
13.65647 486.000
13.70656 514.000
13.75664 485.000
13.80673 512.000
13.85682 520.000
13.90690 501.000
13.95699 502.000
14.00708 536.000
14.05717 494.000
14.10725 464.000
14.15734 530.000
14.20743 493.000
14.25752 521.000
14.30760 502.000
14.35769 469.000
14.40778 536.000
14.45786 544.000
14.50795 567.000
14.55804 629.000
14.60813 890.000
14.65821 1844.000
14.70830 2240.000
14.75839 992.000
14.80848 631.000
14.85856 573.000
14.90865 517.000
14.95874 505.000
15.00882 454.000
15.05891 500.000
15.10900 487.000
15.15909 489.000
15.20917 466.000
15.25926 485.000
15.30935 454.000
15.35943 440.000
15.40952 452.000
15.45961 463.000
15.50970 470.000
15.55978 483.000
15.60987 445.000
15.65996 481.000
15.71005 446.000
15.76013 488.000
15.81022 447.000
15.86031 461.000
15.91039 481.000
15.96048 451.000
16.01057 487.000
16.06066 432.000
16.11074 471.000
16.16083 437.000
16.21092 427.000
16.26101 432.000
16.31109 482.000
16.36118 489.000
16.41127 457.000
16.46135 450.000
16.51144 445.000
16.56153 412.000
16.61162 465.000
16.66170 440.000
16.71179 430.000
16.76188 473.000
16.81196 450.000
16.86205 410.000
16.91214 432.000
16.96223 433.000
17.01231 445.000
17.06240 413.000
17.11249 441.000
17.16258 440.000
17.21266 469.000
17.26275 465.000
17.31284 465.000
17.36292 413.000
17.41301 429.000
17.46310 433.000
17.51319 433.000
17.56327 454.000
17.61336 416.000
17.66345 411.000
17.71353 415.000
17.76362 462.000
17.81371 460.000
17.86380 443.000
17.91388 448.000
17.96397 438.000
18.01406 399.000
18.06415 433.000
18.11423 479.000
18.16432 463.000
18.21441 433.000
18.26449 447.000
18.31458 435.000
18.36467 418.000
18.41476 464.000
18.46484 425.000
18.51493 474.000
18.56502 479.000
18.61511 483.000
18.66519 472.000
18.71528 474.000
18.76537 418.000
18.81545 465.000
18.86554 473.000
18.91563 479.000
18.96572 465.000
19.01580 454.000
19.06589 479.000
19.11598 498.000
19.16606 497.000
19.21615 502.000
19.26624 516.000
19.31633 485.000
19.36641 483.000
19.41650 462.000
19.46659 490.000
19.51668 492.000
19.56676 498.000
19.61685 517.000
19.66694 525.000
19.71702 497.000
19.76711 500.000
19.81720 489.000
19.86729 458.000
19.91737 535.000
19.96746 536.000
20.01755 534.000
20.06764 517.000
20.11772 552.000
20.16781 546.000
20.21790 516.000
20.26798 520.000
20.31807 529.000
20.36816 513.000
20.41825 507.000
20.46833 534.000
20.51842 552.000
20.56851 762.000
20.61859 826.000
20.66868 735.000
20.71877 713.000
20.76886 875.000
20.81894 1171.000
20.86903 1071.000
20.91912 779.000
20.96921 630.000
21.01929 620.000
21.06938 592.000
21.11947 565.000
21.16955 583.000
21.21964 547.000
21.26973 581.000
21.31982 563.000
21.36990 587.000
21.41999 566.000
21.47008 579.000
21.52017 561.000
21.57025 588.000
21.62034 583.000
21.67043 562.000
21.72051 547.000
21.77060 542.000
21.82069 608.000
21.87078 573.000
21.92086 565.000
21.97095 618.000
22.02104 610.000
22.07112 626.000
22.12121 593.000
22.17130 594.000
22.22139 628.000
22.27147 592.000
22.32156 562.000
22.37165 556.000
22.42174 602.000
22.47182 597.000
22.52191 526.000
22.57200 578.000
22.62208 541.000
22.67217 615.000
22.72226 610.000
22.77235 610.000
22.82243 570.000
22.87252 581.000
22.92261 612.000
22.97270 608.000
23.02278 642.000
23.07287 607.000
23.12296 638.000
23.17304 740.000
23.22313 968.000
23.27322 943.000
23.32331 767.000
23.37339 626.000
23.42348 630.000
23.47357 619.000
23.52365 644.000
23.57374 655.000
23.62383 576.000
23.67392 583.000
23.72400 599.000
23.77409 603.000
23.82418 581.000
23.87427 543.000
23.92435 590.000
23.97444 563.000
24.02453 584.000
24.07461 605.000
24.12470 570.000
24.17479 610.000
24.22488 609.000
24.27496 660.000
24.32505 729.000
24.37514 797.000
24.42523 679.000
24.47531 613.000
24.52540 624.000
24.57549 610.000
24.62557 555.000
24.67566 608.000
24.72575 577.000
24.77584 559.000
24.82592 607.000
24.87601 575.000
24.92610 538.000
24.97618 564.000
25.02627 560.000
25.07636 547.000
25.12645 594.000
25.17653 611.000
25.22662 646.000
25.27671 648.000
25.32680 846.000
25.37688 1127.000
25.42697 1123.000
25.47706 888.000
25.52714 666.000
25.57723 578.000
25.62732 605.000
25.67741 629.000
25.72749 537.000
25.77758 534.000
25.82767 528.000
25.87776 537.000
25.92784 478.000
25.97793 509.000
26.02802 553.000
26.07810 494.000
26.12819 523.000
26.17828 545.000
26.22837 518.000
26.27845 497.000
26.32854 525.000
26.37863 464.000
26.42871 534.000
26.47880 497.000
26.52889 476.000
26.57898 526.000
26.62906 504.000
26.67915 532.000
26.72924 515.000
26.77933 526.000
26.82941 518.000
26.87950 501.000
26.92959 527.000
26.97967 468.000
27.02976 487.000
27.07985 466.000
27.12994 462.000
27.18002 466.000
27.23011 487.000
27.28020 510.000
27.33029 514.000
27.38037 578.000
27.43046 546.000
27.48055 557.000
27.53063 502.000
27.58072 466.000
27.63081 477.000
27.68090 485.000
27.73098 472.000
27.78107 469.000
27.83116 487.000
27.88124 466.000
27.93133 471.000
27.98142 466.000
28.03151 478.000
28.08159 451.000
28.13168 405.000
28.18177 461.000
28.23186 410.000
28.28194 460.000
28.33203 460.000
28.38212 423.000
28.43220 457.000
28.48229 463.000
28.53238 445.000
28.58247 416.000
28.63255 427.000
28.68264 435.000
28.73273 429.000
28.78282 450.000
28.83290 439.000
28.88299 449.000
28.93308 480.000
28.98316 518.000
29.03325 525.000
29.08334 520.000
29.13343 551.000
29.18351 622.000
29.23360 841.000
29.28369 2098.000
29.33377 3582.000
29.38386 2630.000
29.43395 1620.000
29.48404 809.000
29.53412 659.000
29.58421 546.000
29.63430 480.000
29.68439 424.000
29.73447 446.000
29.78456 424.000
29.83465 446.000
29.88473 372.000
29.93482 413.000
29.98491 410.000
30.03500 415.000
30.08508 362.000
30.13517 408.000
30.18526 411.000
30.23534 435.000
30.28543 455.000
30.33552 407.000
30.38561 398.000
30.43569 392.000
30.48578 362.000
30.53587 356.000
30.58596 386.000
30.63604 371.000
30.68613 345.000
30.73622 369.000
30.78630 372.000
30.83639 376.000
30.88648 337.000
30.93657 325.000
30.98665 324.000
31.03674 334.000
31.08683 345.000
31.13692 356.000
31.18700 335.000
31.23709 363.000
31.28718 369.000
31.33726 351.000
31.38735 330.000
31.43744 322.000
31.48753 349.000
31.53761 336.000
31.58770 327.000
31.63779 333.000
31.68787 336.000
31.73796 366.000
31.78805 319.000
31.83814 313.000
31.88822 340.000
31.93831 352.000
31.98840 305.000
32.03849 360.000
32.08857 335.000
32.13866 355.000
32.18875 361.000
32.23883 351.000
32.28892 325.000
32.33901 320.000
32.38910 318.000
32.43918 315.000
32.48927 327.000
32.53936 326.000
32.58945 313.000
32.63953 325.000
32.68962 311.000
32.73971 360.000
32.78979 371.000
32.83988 362.000
32.88997 386.000
32.94006 359.000
32.99014 455.000
33.04023 462.000
33.09032 428.000
33.14040 368.000
33.19049 298.000
33.24058 282.000
33.29067 279.000
33.34075 271.000
33.39084 292.000
33.44093 276.000
33.49102 296.000
33.54110 290.000
33.59119 289.000
33.64128 269.000
33.69136 291.000
33.74145 262.000
33.79154 298.000
33.84163 278.000
33.89171 286.000
33.94180 297.000
33.99189 305.000
34.04198 299.000
34.09206 259.000
34.14215 268.000
34.19224 256.000
34.24232 302.000
34.29241 266.000
34.34250 297.000
34.39259 254.000
34.44267 291.000
34.49276 301.000
34.54285 263.000
34.59293 272.000
34.64302 297.000
34.69311 264.000
34.74320 250.000
34.79328 255.000
34.84337 239.000
34.89346 259.000
34.94355 265.000
34.99363 249.000
35.04372 236.000
35.09381 256.000
35.14389 284.000
35.19398 274.000
35.24407 275.000
35.29416 258.000
35.34424 268.000
35.39433 264.000
35.44442 244.000
35.49451 266.000
35.54459 263.000
35.59468 263.000
35.64477 237.000
35.69485 248.000
35.74494 261.000
35.79503 260.000
35.84512 257.000
35.89520 269.000
35.94529 275.000
35.99538 267.000
36.04546 302.000
36.09555 373.000
36.14564 449.000
36.19573 365.000
36.24581 339.000
36.29590 293.000
36.34599 279.000
36.39608 220.000
36.44616 272.000
36.49625 238.000
36.54634 241.000
36.59642 262.000
36.64651 265.000
36.69660 222.000
36.74669 246.000
36.79677 233.000
36.84686 232.000
36.89695 201.000
36.94704 240.000
36.99712 221.000
37.04721 230.000
37.09730 217.000
37.14738 224.000
37.19747 204.000
37.24756 229.000
37.29765 211.000
37.34773 215.000
37.39782 241.000
37.44791 216.000
37.49799 228.000
37.54808 233.000
37.59817 208.000
37.64826 263.000
37.69834 225.000
37.74843 256.000
37.79852 217.000
37.84861 208.000
37.89869 227.000
37.94878 223.000
37.99887 189.000
38.04895 221.000
38.09904 201.000
38.14913 208.000
38.19922 206.000
38.24930 192.000
38.29939 212.000
38.34948 216.000
38.39957 232.000
38.44965 214.000
38.49974 221.000
38.54983 213.000
38.59991 220.000
38.65000 218.000
38.70009 226.000
38.75018 195.000
38.80026 191.000
38.85035 216.000
38.90044 203.000
38.95052 183.000
39.00061 219.000
39.05070 193.000
39.10079 213.000
39.15087 225.000
39.20096 236.000
39.25105 199.000
39.30114 205.000
39.35122 210.000
39.40131 233.000
39.45140 213.000
39.50148 202.000
39.55157 173.000
39.60166 181.000
39.65175 181.000
39.70183 191.000
39.75192 220.000
39.80201 217.000
39.85210 196.000
39.90218 208.000
39.95227 202.000
40.00236 193.000
40.05244 205.000
40.10253 204.000
40.15262 210.000
40.20271 210.000
40.25279 190.000
40.30288 193.000
40.35297 226.000
40.40305 200.000
40.45314 185.000
40.50323 209.000
40.55332 213.000
40.60340 186.000
40.65349 198.000
40.70358 198.000
40.75367 177.000
40.80375 225.000
40.85384 185.000
40.90393 212.000
40.95401 219.000
41.00410 177.000
41.05419 221.000
41.10428 188.000
41.15436 206.000
41.20445 229.000
41.25454 215.000
41.30463 245.000
41.35471 222.000
41.40480 218.000
41.45489 235.000
41.50497 289.000
41.55506 338.000
41.60515 413.000
41.65524 373.000
41.70532 349.000
41.75541 274.000
41.80550 294.000
41.85558 264.000
41.90567 255.000
41.95576 262.000
42.00585 339.000
42.05593 365.000
42.10602 382.000
42.15611 349.000
42.20620 315.000
42.25628 268.000
42.30637 243.000
42.35646 238.000
42.40654 252.000
42.45663 246.000
42.50672 205.000
42.55681 200.000
42.60689 218.000
42.65698 227.000
42.70707 210.000
42.75716 223.000
42.80724 214.000
42.85733 238.000
42.90742 174.000
42.95750 207.000
43.00759 228.000
43.05768 220.000
43.10777 219.000
43.15785 206.000
43.20794 212.000
43.25803 175.000
43.30811 240.000
43.35820 298.000
43.40829 284.000
43.45838 307.000
43.50846 272.000
43.55855 219.000
43.60864 274.000
43.65873 243.000
43.70881 193.000
43.75890 240.000
43.80899 230.000
43.85907 228.000
43.90916 229.000
43.95925 239.000
44.00934 227.000
44.05942 231.000
44.10951 223.000
44.15960 216.000
44.20968 223.000
44.25977 219.000
44.30986 235.000
44.35995 251.000
44.41003 211.000
44.46012 228.000
44.51021 221.000
44.56030 205.000
44.61038 212.000
44.66047 217.000
44.71056 198.000
44.76064 216.000
44.81073 203.000
44.86082 200.000
44.91091 203.000
44.96099 208.000
45.01108 217.000
45.06117 214.000
45.11126 217.000
45.16134 190.000
45.21143 202.000
45.26152 229.000
45.31160 225.000
45.36169 184.000
45.41178 215.000
45.46187 190.000
45.51195 204.000
45.56204 205.000
45.61213 200.000
45.66221 187.000
45.71230 208.000
45.76239 203.000
45.81248 218.000
45.86256 205.000
45.91265 226.000
45.96274 241.000
46.01283 238.000
46.06291 238.000
46.11300 197.000
46.16309 190.000
46.21317 222.000
46.26326 213.000
46.31335 193.000
46.36344 210.000
46.41352 191.000
46.46361 215.000
46.51370 191.000
46.56379 213.000
46.61387 192.000
46.66396 206.000
46.71405 209.000
46.76413 192.000
46.81422 216.000
46.86431 216.000
46.91440 186.000
46.96448 207.000
47.01457 190.000
47.06466 197.000
47.11474 207.000
47.16483 202.000
47.21492 214.000
47.26501 217.000
47.31509 198.000
47.36518 198.000
47.41527 198.000
47.46536 210.000
47.51544 193.000
47.56553 199.000
47.61562 215.000
47.66570 179.000
47.71579 198.000
47.76588 199.000
47.81597 201.000
47.86605 188.000
47.91614 167.000
47.96623 182.000
48.01632 173.000
48.06640 192.000
48.11649 198.000
48.16658 202.000
48.21666 201.000
48.26675 207.000
48.31684 171.000
48.36693 210.000
48.41701 179.000
48.46710 194.000
48.51719 184.000
48.56727 173.000
48.61736 185.000
48.66745 183.000
48.71754 175.000
48.76762 209.000
48.81771 196.000
48.86780 202.000
48.91789 208.000
48.96797 203.000
49.01806 208.000
49.06815 187.000
49.11823 189.000
49.16832 184.000
49.21841 178.000
49.26850 179.000
49.31858 171.000
49.36867 164.000
49.41876 169.000
49.46885 187.000
49.51893 180.000
49.56902 184.000
49.61911 185.000
49.66919 201.000
49.71928 178.000
49.76937 184.000
49.81946 192.000
49.86954 162.000
49.91963 175.000
49.96972 180.000
50.01980 202.000
50.06989 172.000
50.11998 183.000
50.17007 173.000
50.22015 183.000
50.27024 161.000
50.32033 178.000
50.37042 165.000
50.42050 183.000
50.47059 171.000
50.52068 163.000
50.57076 159.000
50.62085 173.000
50.67094 195.000
50.72103 173.000
50.77111 170.000
50.82120 159.000
50.87129 164.000
50.92138 160.000
50.97146 206.000
51.02155 167.000
51.07164 176.000
51.12172 174.000
51.17181 185.000
51.22190 156.000
51.27199 187.000
51.32207 169.000
51.37216 175.000
51.42225 175.000
51.47233 166.000
51.52242 171.000
51.57251 169.000
51.62260 175.000
51.67268 169.000
51.72277 185.000
51.77286 181.000
51.82295 222.000
51.87303 179.000
51.92312 174.000
51.97321 182.000
52.02329 187.000
52.07338 165.000
52.12347 155.000
52.17356 172.000
52.22364 174.000
52.27373 201.000
52.32382 171.000
52.37391 177.000
52.42399 165.000
52.47408 183.000
52.52417 179.000
52.57425 163.000
52.62434 155.000
52.67443 190.000
52.72452 185.000
52.77460 181.000
52.82469 179.000
52.87478 157.000
52.92486 153.000
52.97495 187.000
53.02504 178.000
53.07513 165.000
53.12521 201.000
53.17530 177.000
53.22539 201.000
53.27548 155.000
53.32556 163.000
53.37565 149.000
53.42574 170.000
53.47582 160.000
53.52591 189.000
53.57600 178.000
53.62609 174.000
53.67617 192.000
53.72626 168.000
53.77635 157.000
53.82644 167.000
53.87652 146.000
53.92661 171.000
53.97670 147.000
54.02678 180.000
54.07687 147.000
54.12696 149.000
54.17705 167.000
54.22713 140.000
54.27722 169.000
54.32731 161.000
54.37739 182.000
54.42748 148.000
54.47757 152.000
54.52766 145.000
54.57774 157.000
54.62783 179.000
54.67792 156.000
54.72801 139.000
54.77809 156.000
54.82818 186.000
54.87827 143.000
54.92835 163.000
54.97844 167.000
55.02853 181.000
55.07862 163.000
55.12870 161.000
55.17879 189.000
55.22888 182.000
55.27897 167.000
55.32905 162.000
55.37914 151.000
55.42923 172.000
55.47931 165.000
55.52940 173.000
55.57949 169.000
55.62958 151.000
55.67966 171.000
55.72975 163.000
55.77984 156.000
55.82992 175.000
55.88001 175.000
55.93010 157.000
55.98019 162.000
56.03027 153.000
56.08036 155.000
56.13045 168.000
56.18054 179.000
56.23062 166.000
56.28071 182.000
56.33080 163.000
56.38088 149.000
56.43097 171.000
56.48106 144.000
56.53115 178.000
56.58123 169.000
56.63132 183.000
56.68141 169.000
56.73149 150.000
56.78158 155.000
56.83167 166.000
56.88176 160.000
56.93184 184.000
56.98193 145.000
57.03202 149.000
57.08211 139.000
57.13219 157.000
57.18228 148.000
57.23237 161.000
57.28245 157.000
57.33254 172.000
57.38263 177.000
57.43272 175.000
57.48280 161.000
57.53289 149.000
57.58298 146.000
57.63307 162.000
57.68315 163.000
57.73324 161.000
57.78333 173.000
57.83341 160.000
57.88350 176.000
57.93359 155.000
57.98368 155.000
58.03376 155.000
58.08385 172.000
58.13394 163.000
58.18402 149.000
58.23411 153.000
58.28420 162.000
58.33429 159.000
58.38437 145.000
58.43446 152.000
58.48455 145.000
58.53464 162.000
58.58472 181.000
58.63481 156.000
58.68490 177.000
58.73498 136.000
58.78507 129.000
58.83516 145.000
58.88525 163.000
58.93533 162.000
58.98542 158.000
59.03551 164.000
59.08560 148.000
59.13568 149.000
59.18577 156.000
59.23586 169.000
59.28594 150.000
59.33603 161.000
59.38612 147.000
59.43621 140.000
59.48629 166.000
59.53638 162.000
59.58647 155.000
59.63655 158.000
59.68664 159.000
59.73673 157.000
59.78682 148.000
59.83690 151.000
59.88699 167.000
59.93708 178.000
59.98717 165.000