File: data/XRD/sample_4.xy
10.00010 595.000
10.05019 599.000
10.10027 583.000
10.15036 623.000
10.20045 586.000
10.25054 599.000
10.30062 602.000
10.35071 575.000
10.40080 578.000
10.45089 564.000
10.50097 540.000
10.55106 572.000
10.60115 616.000
10.65123 576.000
10.70132 568.000
10.75141 597.000
10.80150 562.000
10.85158 554.000
10.90167 541.000
10.95176 581.000
11.00184 579.000
11.05193 583.000
11.10202 529.000
11.15211 553.000
11.20219 542.000
11.25228 556.000
11.30237 579.000
11.35246 547.000
11.40254 575.000
11.45263 592.000
11.50272 557.000
11.55280 544.000
11.60289 577.000
11.65298 582.000
11.70307 558.000
11.75315 557.000
11.80324 582.000
11.85333 586.000
11.90342 577.000
11.95350 557.000
12.00359 529.000
12.05368 574.000
12.10376 589.000
12.15385 590.000
12.20394 576.000
12.25403 604.000
12.30411 552.000
12.35420 565.000
12.40429 568.000
12.45437 599.000
12.50446 565.000
12.55455 611.000
12.60464 623.000
12.65472 650.000
12.70481 716.000
12.75490 659.000
12.80499 701.000
12.85507 878.000
12.90516 1072.000
12.95525 1408.000
13.00533 1615.000
13.05542 1465.000
13.10551 1262.000
13.15560 964.000
13.20568 844.000
13.25577 772.000
13.30586 628.000
13.35595 630.000
13.40603 609.000
13.45612 566.000
13.50621 574.000
13.55629 553.000
13.60638 567.000
13.65647 567.000
13.70656 545.000
13.75664 513.000
13.80673 521.000
13.85682 521.000
13.90690 546.000
13.95699 526.000
14.00708 535.000
14.05717 529.000
14.10725 544.000
14.15734 545.000
14.20743 543.000
14.25752 563.000
14.30760 710.000
14.35769 1081.000
14.40778 1814.000
14.45786 2375.000
14.50795 1899.000
14.55804 1109.000
14.60813 685.000
14.65821 580.000
14.70830 588.000
14.75839 518.000
14.80848 492.000
14.85856 495.000
14.90865 478.000
14.95874 538.000
15.00882 485.000
15.05891 490.000
15.10900 526.000
15.15909 467.000
15.20917 487.000
15.25926 460.000
15.30935 484.000
15.35943 441.000
15.40952 498.000
15.45961 495.000
15.50970 458.000
15.55978 455.000
15.60987 472.000
15.65996 454.000
15.71005 431.000
15.76013 438.000
15.81022 480.000
15.86031 478.000
15.91039 404.000
15.96048 447.000
16.01057 432.000
16.06066 468.000
16.11074 451.000
16.16083 460.000
16.21092 444.000
16.26101 465.000
16.31109 447.000
16.36118 463.000
16.41127 447.000
16.46135 453.000
16.51144 438.000
16.56153 470.000
16.61162 463.000
16.66170 416.000
16.71179 428.000
16.76188 450.000
16.81196 476.000
16.86205 420.000
16.91214 457.000
16.96223 446.000
17.01231 462.000
17.06240 481.000
17.11249 439.000
17.16258 453.000
17.21266 421.000
17.26275 417.000
17.31284 470.000
17.36292 440.000
17.41301 428.000
17.46310 442.000
17.51319 438.000
17.56327 462.000
17.61336 451.000
17.66345 448.000
17.71353 407.000
17.76362 446.000
17.81371 429.000
17.86380 461.000
17.91388 449.000
17.96397 466.000
18.01406 463.000
18.06415 447.000
18.11423 465.000
18.16432 432.000
18.21441 473.000
18.26449 440.000
18.31458 438.000
18.36467 463.000
18.41476 449.000
18.46484 426.000
18.51493 406.000
18.56502 447.000
18.61511 476.000
18.66519 446.000
18.71528 473.000
18.76537 473.000
18.81545 506.000
18.86554 521.000
18.91563 480.000
18.96572 472.000
19.01580 501.000
19.06589 498.000
19.11598 488.000
19.16606 477.000
19.21615 465.000
19.26624 451.000
19.31633 487.000
19.36641 482.000
19.41650 522.000
19.46659 529.000
19.51668 464.000
19.56676 492.000
19.61685 495.000
19.66694 505.000
19.71702 545.000
19.76711 525.000
19.81720 494.000
19.86729 502.000
19.91737 500.000
19.96746 525.000
20.01755 547.000
20.06764 529.000
20.11772 525.000
20.16781 529.000
20.21790 564.000
20.26798 545.000
20.31807 616.000
20.36816 592.000
20.41825 632.000
20.46833 671.000
20.51842 630.000
20.56851 569.000
20.61859 589.000
20.66868 508.000
20.71877 548.000
20.76886 592.000
20.81894 550.000
20.86903 567.000
20.91912 539.000
20.96921 576.000
21.01929 596.000
21.06938 578.000
21.11947 620.000
21.16955 585.000
21.21964 599.000
21.26973 577.000
21.31982 566.000
21.36990 586.000
21.41999 539.000
21.47008 604.000
21.52017 569.000
21.57025 560.000
21.62034 568.000
21.67043 624.000
21.72051 608.000
21.77060 572.000
21.82069 580.000
21.87078 601.000
21.92086 583.000
21.97095 624.000
22.02104 611.000
22.07112 602.000
22.12121 596.000
22.17130 592.000
22.22139 647.000
22.27147 605.000
22.32156 609.000
22.37165 576.000
22.42174 595.000
22.47182 658.000
22.52191 622.000
22.57200 636.000
22.62208 622.000
22.67217 604.000
22.72226 606.000
22.77235 662.000
22.82243 693.000
22.87252 718.000
22.92261 643.000
22.97270 707.000
23.02278 617.000
23.07287 617.000
23.12296 592.000
23.17304 658.000
23.22313 623.000
23.27322 599.000
23.32331 584.000
23.37339 609.000
23.42348 607.000
23.47357 610.000
23.52365 626.000
23.57374 634.000
23.62383 616.000
23.67392 585.000
23.72400 594.000
23.77409 680.000
23.82418 627.000
23.87427 560.000
23.92435 577.000
23.97444 644.000
24.02453 630.000
24.07461 626.000
24.12470 653.000
24.17479 614.000
24.22488 612.000
24.27496 553.000
24.32505 605.000
24.37514 607.000
24.42523 636.000
24.47531 575.000
24.52540 575.000
24.57549 565.000
24.62557 613.000
24.67566 605.000
24.72575 680.000
24.77584 641.000
24.82592 681.000
24.87601 812.000
24.92610 892.000
24.97618 950.000
25.02627 903.000
25.07636 882.000
25.12645 772.000
25.17653 650.000
25.22662 642.000
25.27671 588.000
25.32680 602.000
25.37688 574.000
25.42697 605.000
25.47706 584.000
25.52714 567.000
25.57723 609.000
25.62732 622.000
25.67741 652.000
25.72749 689.000
25.77758 774.000
25.82767 807.000
25.87776 842.000
25.92784 792.000
25.97793 754.000
26.02802 697.000
26.07810 646.000
26.12819 600.000
26.17828 534.000
26.22837 604.000
26.27845 573.000
26.32854 544.000
26.37863 528.000
26.42871 516.000
26.47880 514.000
26.52889 552.000
26.57898 509.000
26.62906 563.000
26.67915 512.000
26.72924 520.000
26.77933 507.000
26.82941 512.000
26.87950 540.000
26.92959 474.000
26.97967 544.000
27.02976 483.000
27.07985 533.000
27.12994 577.000
27.18002 500.000
27.23011 487.000
27.28020 495.000
27.33029 464.000
27.38037 475.000
27.43046 480.000
27.48055 462.000
27.53063 456.000
27.58072 509.000
27.63081 454.000
27.68090 521.000
27.73098 485.000
27.78107 498.000
27.83116 484.000
27.88124 485.000
27.93133 444.000
27.98142 485.000
28.03151 425.000
28.08159 479.000
28.13168 473.000
28.18177 512.000
28.23186 479.000
28.28194 445.000
28.33203 436.000
28.38212 448.000
28.43220 457.000
28.48229 492.000
28.53238 542.000
28.58247 591.000
28.63255 687.000
28.68264 803.000
28.73273 1122.000
28.78282 1326.000
28.83290 1633.000
28.88299 1535.000
28.93308 1317.000
28.98316 989.000
29.03325 829.000
29.08334 665.000
29.13343 459.000
29.18351 474.000
29.23360 438.000
29.28369 433.000
29.33377 421.000
29.38386 433.000
29.43395 412.000
29.48404 376.000
29.53412 420.000
29.58421 421.000
29.63430 403.000
29.68439 402.000
29.73447 381.000
29.78456 407.000
29.83465 414.000
29.88473 391.000
29.93482 393.000
29.98491 385.000
30.03500 364.000
30.08508 433.000
30.13517 361.000
30.18526 436.000
30.23534 358.000
30.28543 364.000
30.33552 342.000
30.38561 409.000
30.43569 371.000
30.48578 385.000
30.53587 367.000
30.58596 363.000
30.63604 372.000
30.68613 350.000
30.73622 346.000
30.78630 365.000
30.83639 358.000
30.88648 361.000
30.93657 345.000
30.98665 362.000
31.03674 343.000
31.08683 347.000
31.13692 330.000
31.18700 343.000
31.23709 322.000
31.28718 340.000
31.33726 344.000
31.38735 363.000
31.43744 352.000
31.48753 375.000
31.53761 345.000
31.58770 325.000
31.63779 336.000
31.68787 332.000
31.73796 302.000
31.78805 330.000
31.83814 321.000
31.88822 333.000
31.93831 353.000
31.98840 351.000
32.03849 376.000
32.08857 365.000
32.13866 431.000
32.18875 408.000
32.23883 472.000
32.28892 502.000
32.33901 578.000
32.38910 569.000
32.43918 502.000
32.48927 504.000
32.53936 390.000
32.58945 358.000
32.63953 319.000
32.68962 331.000
32.73971 313.000
32.78979 333.000
32.83988 300.000
32.88997 306.000
32.94006 320.000
32.99014 307.000
33.04023 296.000
33.09032 339.000
33.14040 299.000
33.19049 307.000
33.24058 278.000
33.29067 308.000
33.34075 298.000
33.39084 299.000
33.44093 316.000
33.49102 290.000
33.54110 292.000
33.59119 249.000
33.64128 305.000
33.69136 282.000
33.74145 313.000
33.79154 267.000
33.84163 305.000
33.89171 255.000
33.94180 299.000
33.99189 279.000
34.04198 272.000
34.09206 265.000
34.14215 290.000
34.19224 276.000
34.24232 261.000
34.29241 305.000
34.34250 252.000
34.39259 252.000
34.44267 286.000
34.49276 254.000
34.54285 308.000
34.59293 259.000
34.64302 271.000
34.69311 287.000
34.74320 247.000
34.79328 263.000
34.84337 250.000
34.89346 269.000
34.94355 236.000
34.99363 270.000
35.04372 270.000
35.09381 263.000
35.14389 262.000
35.19398 259.000
35.24407 235.000
35.29416 258.000
35.34424 285.000
35.39433 294.000
35.44442 264.000
35.49451 337.000
35.54459 297.000
35.59468 284.000
35.64477 275.000
35.69485 279.000
35.74494 280.000
35.79503 275.000
35.84512 226.000
35.89520 272.000
35.94529 235.000
35.99538 238.000
36.04546 254.000
36.09555 233.000
36.14564 234.000
36.19573 247.000
36.24581 219.000
36.29590 257.000
36.34599 251.000
36.39608 253.000
36.44616 234.000
36.49625 261.000
36.54634 260.000
36.59642 239.000
36.64651 257.000
36.69660 241.000
36.74669 225.000
36.79677 251.000
36.84686 262.000
36.89695 222.000
36.94704 249.000
36.99712 232.000
37.04721 242.000
37.09730 238.000
37.14738 238.000
37.19747 223.000
37.24756 234.000
37.29765 253.000
37.34773 227.000
37.39782 212.000
37.44791 208.000
37.49799 225.000
37.54808 246.000
37.59817 213.000
37.64826 216.000
37.69834 226.000
37.74843 211.000
37.79852 208.000
37.84861 228.000
37.89869 240.000
37.94878 211.000
37.99887 213.000
38.04895 226.000
38.09904 189.000
38.14913 211.000
38.19922 229.000
38.24930 223.000
38.29939 207.000
38.34948 216.000
38.39957 198.000
38.44965 220.000
38.49974 248.000
38.54983 227.000
38.59991 201.000
38.65000 197.000
38.70009 247.000
38.75018 215.000
38.80026 251.000
38.85035 293.000
38.90044 284.000
38.95052 375.000
39.00061 385.000
39.05070 406.000
39.10079 437.000
39.15087 419.000
39.20096 384.000
39.25105 365.000
39.30114 280.000
39.35122 268.000
39.40131 263.000
39.45140 231.000
39.50148 222.000
39.55157 208.000
39.60166 222.000
39.65175 210.000
39.70183 220.000
39.75192 212.000
39.80201 219.000
39.85210 218.000
39.90218 201.000
39.95227 219.000
40.00236 202.000
40.05244 236.000
40.10253 196.000
40.15262 217.000
40.20271 206.000
40.25279 200.000
40.30288 225.000
40.35297 218.000
40.40305 209.000
40.45314 207.000
40.50323 194.000
40.55332 222.000
40.60340 192.000
40.65349 225.000
40.70358 223.000
40.75367 224.000
40.80375 255.000
40.85384 235.000
40.90393 263.000
40.95401 287.000
41.00410 285.000
41.05419 302.000
41.10428 317.000
41.15436 342.000
41.20445 299.000
41.25454 341.000
41.30463 309.000
41.35471 289.000
41.40480 279.000
41.45489 264.000
41.50497 230.000
41.55506 236.000
41.60515 212.000
41.65524 192.000
41.70532 209.000
41.75541 210.000
41.80550 241.000
41.85558 207.000
41.90567 209.000
41.95576 205.000
42.00585 236.000
42.05593 197.000
42.10602 195.000
42.15611 217.000
42.20620 220.000
42.25628 225.000
42.30637 216.000
42.35646 208.000
42.40654 235.000
42.45663 240.000
42.50672 233.000
42.55681 250.000
42.60689 225.000
42.65698 248.000
42.70707 227.000
42.75716 213.000
42.80724 238.000
42.85733 219.000
42.90742 217.000
42.95750 225.000
43.00759 214.000
43.05768 210.000
43.10777 223.000
43.15785 222.000
43.20794 235.000
43.25803 205.000
43.30811 227.000
43.35820 221.000
43.40829 243.000
43.45838 241.000
43.50846 233.000
43.55855 236.000
43.60864 218.000
43.65873 240.000
43.70881 248.000
43.75890 232.000
43.80899 246.000
43.85907 242.000
43.90916 245.000
43.95925 238.000
44.00934 208.000
44.05942 225.000
44.10951 210.000
44.15960 202.000
44.20968 218.000
44.25977 218.000
44.30986 226.000
44.35995 187.000
44.41003 226.000
44.46012 206.000
44.51021 196.000
44.56030 209.000
44.61038 203.000
44.66047 216.000
44.71056 210.000
44.76064 206.000
44.81073 217.000
44.86082 210.000
44.91091 206.000
44.96099 213.000
45.01108 184.000
45.06117 198.000
45.11126 223.000
45.16134 219.000
45.21143 218.000
45.26152 221.000
45.31160 197.000
45.36169 242.000
45.41178 203.000
45.46187 230.000
45.51195 190.000
45.56204 211.000
45.61213 214.000
45.66221 201.000
45.71230 227.000
45.76239 200.000
45.81248 205.000
45.86256 200.000
45.91265 204.000
45.96274 202.000
46.01283 203.000
46.06291 189.000
46.11300 209.000
46.16309 203.000
46.21317 198.000
46.26326 208.000
46.31335 221.000
46.36344 213.000
46.41352 195.000
46.46361 217.000
46.51370 213.000
46.56379 184.000
46.61387 188.000
46.66396 226.000
46.71405 190.000
46.76413 185.000
46.81422 202.000
46.86431 189.000
46.91440 182.000
46.96448 198.000
47.01457 205.000
47.06466 213.000
47.11474 207.000
47.16483 188.000
47.21492 219.000
47.26501 195.000
47.31509 186.000
47.36518 189.000
47.41527 217.000
47.46536 219.000
47.51544 176.000
47.56553 187.000
47.61562 196.000
47.66570 177.000
47.71579 180.000
47.76588 209.000
47.81597 202.000
47.86605 178.000
47.91614 207.000
47.96623 166.000
48.01632 190.000
48.06640 170.000
48.11649 200.000
48.16658 186.000
48.21666 187.000
48.26675 183.000
48.31684 211.000
48.36693 198.000
48.41701 216.000
48.46710 210.000
48.51719 204.000
48.56727 214.000
48.61736 190.000
48.66745 200.000
48.71754 214.000
48.76762 183.000
48.81771 193.000
48.86780 217.000
48.91789 184.000
48.96797 205.000
49.01806 205.000
49.06815 191.000
49.11823 173.000
49.16832 198.000
49.21841 194.000
49.26850 187.000
49.31858 182.000
49.36867 170.000
49.41876 162.000
49.46885 195.000
49.51893 192.000
49.56902 175.000
49.61911 182.000
49.66919 178.000
49.71928 217.000
49.76937 198.000
49.81946 180.000
49.86954 160.000
49.91963 186.000
49.96972 190.000
50.01980 198.000
50.06989 188.000
50.11998 195.000
50.17007 192.000
50.22015 179.000
50.27024 188.000
50.32033 180.000
50.37042 178.000
50.42050 204.000
50.47059 188.000
50.52068 174.000
50.57076 190.000
50.62085 194.000
50.67094 199.000
50.72103 190.000
50.77111 211.000
50.82120 209.000
50.87129 219.000
50.92138 236.000
50.97146 175.000
51.02155 199.000
51.07164 206.000
51.12172 176.000
51.17181 205.000
51.22190 196.000
51.27199 195.000
51.32207 187.000
51.37216 168.000
51.42225 171.000
51.47233 200.000
51.52242 179.000
51.57251 195.000
51.62260 180.000
51.67268 199.000
51.72277 157.000
51.77286 151.000
51.82295 171.000
51.87303 203.000
51.92312 185.000
51.97321 166.000
52.02329 166.000
52.07338 162.000
52.12347 185.000
52.17356 192.000
52.22364 189.000
52.27373 170.000
52.32382 175.000
52.37391 177.000
52.42399 180.000
52.47408 206.000
52.52417 209.000
52.57425 248.000
52.62434 289.000
52.67443 282.000
52.72452 358.000
52.77460 332.000
52.82469 379.000
52.87478 360.000
52.92486 344.000
52.97495 347.000
53.02504 279.000
53.07513 244.000
53.12521 258.000
53.17530 198.000
53.22539 198.000
53.27548 192.000
53.32556 213.000
53.37565 190.000
53.42574 152.000
53.47582 171.000
53.52591 179.000
53.57600 157.000
53.62609 171.000
53.67617 169.000
53.72626 159.000
53.77635 162.000
53.82644 190.000
53.87652 163.000
53.92661 166.000
53.97670 176.000
54.02678 170.000
54.07687 163.000
54.12696 174.000
54.17705 192.000
54.22713 154.000
54.27722 182.000
54.32731 169.000
54.37739 150.000
54.42748 166.000
54.47757 163.000
54.52766 154.000
54.57774 163.000
54.62783 179.000
54.67792 176.000
54.72801 158.000
54.77809 168.000
54.82818 187.000
54.87827 161.000
54.92835 183.000
54.97844 154.000
55.02853 151.000
55.07862 157.000
55.12870 160.000
55.17879 172.000
55.22888 145.000
55.27897 154.000
55.32905 183.000
55.37914 173.000
55.42923 189.000
55.47931 151.000
55.52940 172.000
55.57949 174.000
55.62958 172.000
55.67966 148.000
55.72975 142.000
55.77984 158.000
55.82992 147.000
55.88001 171.000
55.93010 156.000
55.98019 172.000
56.03027 212.000
56.08036 144.000
56.13045 186.000
56.18054 146.000
56.23062 154.000
56.28071 169.000
56.33080 164.000
56.38088 156.000
56.43097 154.000
56.48106 176.000
56.53115 151.000
56.58123 171.000
56.63132 154.000
56.68141 171.000
56.73149 182.000
56.78158 166.000
56.83167 169.000
56.88176 160.000
56.93184 153.000
56.98193 167.000
57.03202 163.000
57.08211 156.000
57.13219 145.000
57.18228 170.000
57.23237 156.000
57.28245 179.000
57.33254 149.000
57.38263 162.000
57.43272 159.000
57.48280 143.000
57.53289 155.000
57.58298 154.000
57.63307 168.000
57.68315 172.000
57.73324 172.000
57.78333 155.000
57.83341 170.000
57.88350 159.000
57.93359 154.000
57.98368 160.000
58.03376 171.000
58.08385 180.000
58.13394 160.000
58.18402 160.000
58.23411 131.000
58.28420 142.000
58.33429 163.000
58.38437 137.000
58.43446 163.000
58.48455 138.000
58.53464 154.000
58.58472 182.000
58.63481 165.000
58.68490 162.000
58.73498 159.000
58.78507 173.000
58.83516 165.000
58.88525 152.000
58.93533 159.000
58.98542 153.000
59.03551 161.000
59.08560 185.000
59.13568 174.000
59.18577 176.000
59.23586 149.000
59.28594 173.000
59.33603 174.000
59.38612 188.000
59.43621 180.000
59.48629 161.000
59.53638 176.000
59.58647 187.000
59.63655 191.000
59.68664 164.000
59.73673 174.000
59.78682 156.000
59.83690 171.000
59.88699 133.000
59.93708 177.000
59.98717 149.000