File: data/XRD/sample_3.xy
10.00010 626.000
10.05019 649.000
10.10027 611.000
10.15036 599.000
10.20045 639.000
10.25054 600.000
10.30062 581.000
10.35071 617.000
10.40080 631.000
10.45089 586.000
10.50097 574.000
10.55106 574.000
10.60115 578.000
10.65123 605.000
10.70132 588.000
10.75141 580.000
10.80150 573.000
10.85158 632.000
10.90167 582.000
10.95176 543.000
11.00184 558.000
11.05193 576.000
11.10202 586.000
11.15211 540.000
11.20219 574.000
11.25228 542.000
11.30237 577.000
11.35246 602.000
11.40254 518.000
11.45263 544.000
11.50272 568.000
11.55280 576.000
11.60289 536.000
11.65298 562.000
11.70307 559.000
11.75315 567.000
11.80324 555.000
11.85333 560.000
11.90342 641.000
11.95350 582.000
12.00359 571.000
12.05368 544.000
12.10376 544.000
12.15385 539.000
12.20394 558.000
12.25403 552.000
12.30411 520.000
12.35420 556.000
12.40429 595.000
12.45437 560.000
12.50446 574.000
12.55455 555.000
12.60464 594.000
12.65472 567.000
12.70481 595.000
12.75490 543.000
12.80499 580.000
12.85507 580.000
12.90516 563.000
12.95525 644.000
13.00533 604.000
13.05542 574.000
13.10551 538.000
13.15560 542.000
13.20568 532.000
13.25577 522.000
13.30586 563.000
13.35595 544.000
13.40603 522.000
13.45612 545.000
13.50621 535.000
13.55629 545.000
13.60638 520.000
13.65647 482.000
13.70656 545.000
13.75664 529.000
13.80673 539.000
13.85682 557.000
13.90690 574.000
13.95699 544.000
14.00708 601.000
14.05717 553.000
14.10725 547.000
14.15734 625.000
14.20743 685.000
14.25752 1050.000
14.30760 2264.000
14.35769 5177.000
14.40778 3775.000
14.45786 1443.000
14.50795 969.000
14.55804 769.000
14.60813 658.000
14.65821 607.000
14.70830 574.000
14.75839 500.000
14.80848 528.000
14.85856 538.000
14.90865 473.000
14.95874 529.000
15.00882 498.000
15.05891 478.000
15.10900 504.000
15.15909 528.000
15.20917 432.000
15.25926 503.000
15.30935 487.000
15.35943 478.000
15.40952 478.000
15.45961 460.000
15.50970 475.000
15.55978 461.000
15.60987 497.000
15.65996 511.000
15.71005 448.000
15.76013 462.000
15.81022 426.000
15.86031 454.000
15.91039 422.000
15.96048 443.000
16.01057 452.000
16.06066 459.000
16.11074 442.000
16.16083 476.000
16.21092 455.000
16.26101 484.000
16.31109 439.000
16.36118 406.000
16.41127 460.000
16.46135 444.000
16.51144 415.000
16.56153 431.000
16.61162 418.000
16.66170 428.000
16.71179 456.000
16.76188 459.000
16.81196 445.000
16.86205 467.000
16.91214 474.000
16.96223 444.000
17.01231 484.000
17.06240 461.000
17.11249 446.000
17.16258 447.000
17.21266 494.000
17.26275 467.000
17.31284 447.000
17.36292 481.000
17.41301 486.000
17.46310 455.000
17.51319 483.000
17.56327 486.000
17.61336 457.000
17.66345 473.000
17.71353 505.000
17.76362 471.000
17.81371 443.000
17.86380 440.000
17.91388 468.000
17.96397 452.000
18.01406 483.000
18.06415 474.000
18.11423 486.000
18.16432 496.000
18.21441 483.000
18.26449 485.000
18.31458 493.000
18.36467 466.000
18.41476 532.000
18.46484 465.000
18.51493 486.000
18.56502 506.000
18.61511 477.000
18.66519 463.000
18.71528 471.000
18.76537 490.000
18.81545 528.000
18.86554 479.000
18.91563 495.000
18.96572 469.000
19.01580 465.000
19.06589 446.000
19.11598 490.000
19.16606 524.000
19.21615 469.000
19.26624 509.000
19.31633 530.000
19.36641 527.000
19.41650 507.000
19.46659 523.000
19.51668 507.000
19.56676 516.000
19.61685 547.000
19.66694 515.000
19.71702 539.000
19.76711 557.000
19.81720 531.000
19.86729 497.000
19.91737 527.000
19.96746 555.000
20.01755 573.000
20.06764 554.000
20.11772 596.000
20.16781 589.000
20.21790 616.000
20.26798 625.000
20.31807 615.000
20.36816 601.000
20.41825 617.000
20.46833 593.000
20.51842 606.000
20.56851 534.000
20.61859 578.000
20.66868 587.000
20.71877 589.000
20.76886 584.000
20.81894 562.000
20.86903 561.000
20.91912 576.000
20.96921 587.000
21.01929 587.000
21.06938 571.000
21.11947 557.000
21.16955 592.000
21.21964 580.000
21.26973 590.000
21.31982 610.000
21.36990 627.000
21.41999 585.000
21.47008 616.000
21.52017 574.000
21.57025 642.000
21.62034 586.000
21.67043 634.000
21.72051 618.000
21.77060 606.000
21.82069 566.000
21.87078 615.000
21.92086 620.000
21.97095 630.000
22.02104 633.000
22.07112 622.000
22.12121 614.000
22.17130 587.000
22.22139 620.000
22.27147 595.000
22.32156 652.000
22.37165 661.000
22.42174 609.000
22.47182 629.000
22.52191 636.000
22.57200 623.000
22.62208 662.000
22.67217 645.000
22.72226 676.000
22.77235 678.000
22.82243 676.000
22.87252 650.000
22.92261 653.000
22.97270 638.000
23.02278 596.000
23.07287 637.000
23.12296 632.000
23.17304 665.000
23.22313 671.000
23.27322 696.000
23.32331 563.000
23.37339 625.000
23.42348 630.000
23.47357 580.000
23.52365 646.000
23.57374 638.000
23.62383 615.000
23.67392 605.000
23.72400 641.000
23.77409 618.000
23.82418 617.000
23.87427 600.000
23.92435 630.000
23.97444 607.000
24.02453 650.000
24.07461 613.000
24.12470 644.000
24.17479 642.000
24.22488 659.000
24.27496 634.000
24.32505 614.000
24.37514 610.000
24.42523 632.000
24.47531 565.000
24.52540 637.000
24.57549 593.000
24.62557 668.000
24.67566 657.000
24.72575 786.000
24.77584 860.000
24.82592 998.000
24.87601 1088.000
24.92610 998.000
24.97618 910.000
25.02627 743.000
25.07636 704.000
25.12645 617.000
25.17653 570.000
25.22662 578.000
25.27671 610.000
25.32680 547.000
25.37688 525.000
25.42697 586.000
25.47706 545.000
25.52714 552.000
25.57723 595.000
25.62732 594.000
25.67741 593.000
25.72749 562.000
25.77758 587.000
25.82767 541.000
25.87776 554.000
25.92784 557.000
25.97793 573.000
26.02802 550.000
26.07810 537.000
26.12819 556.000
26.17828 514.000
26.22837 521.000
26.27845 530.000
26.32854 550.000
26.37863 543.000
26.42871 543.000
26.47880 568.000
26.52889 518.000
26.57898 525.000
26.62906 555.000
26.67915 518.000
26.72924 529.000
26.77933 559.000
26.82941 544.000
26.87950 501.000
26.92959 565.000
26.97967 500.000
27.02976 508.000
27.07985 520.000
27.12994 530.000
27.18002 507.000
27.23011 516.000
27.28020 511.000
27.33029 500.000
27.38037 489.000
27.43046 486.000
27.48055 483.000
27.53063 540.000
27.58072 474.000
27.63081 495.000
27.68090 570.000
27.73098 487.000
27.78107 518.000
27.83116 485.000
27.88124 471.000
27.93133 532.000
27.98142 468.000
28.03151 498.000
28.08159 487.000
28.13168 452.000
28.18177 450.000
28.23186 469.000
28.28194 515.000
28.33203 577.000
28.38212 646.000
28.43220 628.000
28.48229 661.000
28.53238 760.000
28.58247 1258.000
28.63255 2748.000
28.68264 4044.000
28.73273 2885.000
28.78282 1754.000
28.83290 1057.000
28.88299 922.000
28.93308 744.000
28.98316 605.000
29.03325 519.000
29.08334 480.000
29.13343 496.000
29.18351 458.000
29.23360 434.000
29.28369 451.000
29.33377 442.000
29.38386 445.000
29.43395 436.000
29.48404 453.000
29.53412 419.000
29.58421 412.000
29.63430 438.000
29.68439 406.000
29.73447 407.000
29.78456 400.000
29.83465 390.000
29.88473 435.000
29.93482 391.000
29.98491 421.000
30.03500 392.000
30.08508 387.000
30.13517 391.000
30.18526 371.000
30.23534 424.000
30.28543 425.000
30.33552 377.000
30.38561 396.000
30.43569 376.000
30.48578 404.000
30.53587 371.000
30.58596 378.000
30.63604 397.000
30.68613 387.000
30.73622 365.000
30.78630 351.000
30.83639 384.000
30.88648 376.000
30.93657 370.000
30.98665 352.000
31.03674 361.000
31.08683 383.000
31.13692 366.000
31.18700 381.000
31.23709 367.000
31.28718 365.000
31.33726 352.000
31.38735 364.000
31.43744 353.000
31.48753 359.000
31.53761 357.000
31.58770 330.000
31.63779 347.000
31.68787 336.000
31.73796 348.000
31.78805 346.000
31.83814 338.000
31.88822 346.000
31.93831 394.000
31.98840 418.000
32.03849 520.000
32.08857 567.000
32.13866 589.000
32.18875 592.000
32.23883 543.000
32.28892 440.000
32.33901 416.000
32.38910 386.000
32.43918 392.000
32.48927 342.000
32.53936 313.000
32.58945 306.000
32.63953 319.000
32.68962 316.000
32.73971 328.000
32.78979 296.000
32.83988 323.000
32.88997 328.000
32.94006 305.000
32.99014 311.000
33.04023 319.000
33.09032 270.000
33.14040 296.000
33.19049 302.000
33.24058 305.000
33.29067 291.000
33.34075 293.000
33.39084 295.000
33.44093 292.000
33.49102 300.000
33.54110 296.000
33.59119 282.000
33.64128 294.000
33.69136 296.000
33.74145 284.000
33.79154 275.000
33.84163 294.000
33.89171 251.000
33.94180 275.000
33.99189 295.000
34.04198 285.000
34.09206 264.000
34.14215 258.000
34.19224 288.000
34.24232 283.000
34.29241 282.000
34.34250 275.000
34.39259 298.000
34.44267 280.000
34.49276 249.000
34.54285 303.000
34.59293 269.000
34.64302 259.000
34.69311 274.000
34.74320 262.000
34.79328 244.000
34.84337 260.000
34.89346 257.000
34.94355 267.000
34.99363 262.000
35.04372 279.000
35.09381 259.000
35.14389 272.000
35.19398 253.000
35.24407 293.000
35.29416 307.000
35.34424 305.000
35.39433 261.000
35.44442 269.000
35.49451 277.000
35.54459 258.000
35.59468 284.000
35.64477 253.000
35.69485 287.000
35.74494 257.000
35.79503 248.000
35.84512 237.000
35.89520 279.000
35.94529 237.000
35.99538 234.000
36.04546 273.000
36.09555 249.000
36.14564 231.000
36.19573 261.000
36.24581 245.000
36.29590 234.000
36.34599 232.000
36.39608 268.000
36.44616 244.000
36.49625 227.000
36.54634 256.000
36.59642 266.000
36.64651 253.000
36.69660 231.000
36.74669 215.000
36.79677 251.000
36.84686 196.000
36.89695 248.000
36.94704 246.000
36.99712 211.000
37.04721 249.000
37.09730 227.000
37.14738 222.000
37.19747 244.000
37.24756 212.000
37.29765 234.000
37.34773 226.000
37.39782 234.000
37.44791 226.000
37.49799 191.000
37.54808 237.000
37.59817 237.000
37.64826 225.000
37.69834 208.000
37.74843 218.000
37.79852 233.000
37.84861 249.000
37.89869 208.000
37.94878 212.000
37.99887 220.000
38.04895 221.000
38.09904 203.000
38.14913 226.000
38.19922 206.000
38.24930 215.000
38.29939 205.000
38.34948 228.000
38.39957 231.000
38.44965 206.000
38.49974 221.000
38.54983 195.000
38.59991 209.000
38.65000 212.000
38.70009 221.000
38.75018 233.000
38.80026 215.000
38.85035 227.000
38.90044 210.000
38.95052 193.000
39.00061 228.000
39.05070 202.000
39.10079 233.000
39.15087 248.000
39.20096 196.000
39.25105 215.000
39.30114 202.000
39.35122 227.000
39.40131 212.000
39.45140 213.000
39.50148 221.000
39.55157 233.000
39.60166 170.000
39.65175 207.000
39.70183 235.000
39.75192 230.000
39.80201 218.000
39.85210 206.000
39.90218 213.000
39.95227 192.000
40.00236 209.000
40.05244 216.000
40.10253 225.000
40.15262 207.000
40.20271 210.000
40.25279 194.000
40.30288 222.000
40.35297 261.000
40.40305 227.000
40.45314 226.000
40.50323 239.000
40.55332 208.000
40.60340 216.000
40.65349 240.000
40.70358 259.000
40.75367 275.000
40.80375 276.000
40.85384 325.000
40.90393 367.000
40.95401 373.000
41.00410 321.000
41.05419 332.000
41.10428 303.000
41.15436 263.000
41.20445 235.000
41.25454 222.000
41.30463 211.000
41.35471 196.000
41.40480 250.000
41.45489 208.000
41.50497 215.000
41.55506 194.000
41.60515 225.000
41.65524 203.000
41.70532 215.000
41.75541 229.000
41.80550 227.000
41.85558 236.000
41.90567 217.000
41.95576 200.000
42.00585 217.000
42.05593 187.000
42.10602 214.000
42.15611 235.000
42.20620 227.000
42.25628 225.000
42.30637 201.000
42.35646 221.000
42.40654 230.000
42.45663 223.000
42.50672 236.000
42.55681 211.000
42.60689 220.000
42.65698 222.000
42.70707 211.000
42.75716 230.000
42.80724 240.000
42.85733 213.000
42.90742 199.000
42.95750 248.000
43.00759 228.000
43.05768 215.000
43.10777 247.000
43.15785 234.000
43.20794 263.000
43.25803 236.000
43.30811 242.000
43.35820 256.000
43.40829 268.000
43.45838 272.000
43.50846 294.000
43.55855 315.000
43.60864 285.000
43.65873 292.000
43.70881 264.000
43.75890 248.000
43.80899 227.000
43.85907 219.000
43.90916 226.000
43.95925 230.000
44.00934 223.000
44.05942 219.000
44.10951 197.000
44.15960 226.000
44.20968 215.000
44.25977 217.000
44.30986 224.000
44.35995 230.000
44.41003 215.000
44.46012 223.000
44.51021 222.000
44.56030 223.000
44.61038 201.000
44.66047 219.000
44.71056 194.000
44.76064 189.000
44.81073 239.000
44.86082 215.000
44.91091 205.000
44.96099 231.000
45.01108 218.000
45.06117 215.000
45.11126 204.000
45.16134 227.000
45.21143 212.000
45.26152 209.000
45.31160 220.000
45.36169 211.000
45.41178 208.000
45.46187 171.000
45.51195 213.000
45.56204 199.000
45.61213 223.000
45.66221 215.000
45.71230 190.000
45.76239 188.000
45.81248 211.000
45.86256 240.000
45.91265 216.000
45.96274 185.000
46.01283 190.000
46.06291 205.000
46.11300 226.000
46.16309 204.000
46.21317 190.000
46.26326 223.000
46.31335 201.000
46.36344 185.000
46.41352 217.000
46.46361 212.000
46.51370 191.000
46.56379 205.000
46.61387 208.000
46.66396 222.000
46.71405 188.000
46.76413 214.000
46.81422 171.000
46.86431 207.000
46.91440 199.000
46.96448 196.000
47.01457 199.000
47.06466 206.000
47.11474 209.000
47.16483 190.000
47.21492 181.000
47.26501 219.000
47.31509 185.000
47.36518 178.000
47.41527 220.000
47.46536 172.000
47.51544 210.000
47.56553 196.000
47.61562 177.000
47.66570 201.000
47.71579 193.000
47.76588 167.000
47.81597 181.000
47.86605 189.000
47.91614 177.000
47.96623 183.000
48.01632 209.000
48.06640 203.000
48.11649 208.000
48.16658 167.000
48.21666 217.000
48.26675 199.000
48.31684 190.000
48.36693 233.000
48.41701 199.000
48.46710 229.000
48.51719 190.000
48.56727 211.000
48.61736 206.000
48.66745 203.000
48.71754 207.000
48.76762 190.000
48.81771 181.000
48.86780 190.000
48.91789 193.000
48.96797 204.000
49.01806 167.000
49.06815 182.000
49.11823 194.000
49.16832 196.000
49.21841 196.000
49.26850 202.000
49.31858 179.000
49.36867 194.000
49.41876 180.000
49.46885 211.000
49.51893 226.000
49.56902 177.000
49.61911 187.000
49.66919 176.000
49.71928 191.000
49.76937 208.000
49.81946 215.000
49.86954 190.000
49.91963 181.000
49.96972 216.000
50.01980 194.000
50.06989 200.000
50.11998 171.000
50.17007 179.000
50.22015 187.000
50.27024 199.000
50.32033 205.000
50.37042 206.000
50.42050 201.000
50.47059 214.000
50.52068 191.000
50.57076 175.000
50.62085 200.000
50.67094 218.000
50.72103 210.000
50.77111 223.000
50.82120 219.000
50.87129 215.000
50.92138 192.000
50.97146 186.000
51.02155 194.000
51.07164 207.000
51.12172 205.000
51.17181 161.000
51.22190 163.000
51.27199 171.000
51.32207 183.000
51.37216 176.000
51.42225 181.000
51.47233 198.000
51.52242 189.000
51.57251 178.000
51.62260 197.000
51.67268 174.000
51.72277 203.000
51.77286 168.000
51.82295 174.000
51.87303 190.000
51.92312 203.000
51.97321 183.000
52.02329 151.000
52.07338 172.000
52.12347 165.000
52.17356 174.000
52.22364 194.000
52.27373 168.000
52.32382 188.000
52.37391 166.000
52.42399 194.000
52.47408 178.000
52.52417 171.000
52.57425 181.000
52.62434 166.000
52.67443 170.000
52.72452 196.000
52.77460 177.000
52.82469 196.000
52.87478 189.000
52.92486 190.000
52.97495 179.000
53.02504 187.000
53.07513 175.000
53.12521 179.000
53.17530 173.000
53.22539 172.000
53.27548 170.000
53.32556 181.000
53.37565 156.000
53.42574 169.000
53.47582 177.000
53.52591 160.000
53.57600 184.000
53.62609 170.000
53.67617 162.000
53.72626 151.000
53.77635 143.000
53.82644 139.000
53.87652 140.000
53.92661 165.000
53.97670 179.000
54.02678 154.000
54.07687 159.000
54.12696 170.000
54.17705 188.000
54.22713 159.000
54.27722 160.000
54.32731 199.000
54.37739 168.000
54.42748 163.000
54.47757 159.000
54.52766 182.000
54.57774 180.000
54.62783 159.000
54.67792 186.000
54.72801 160.000
54.77809 158.000
54.82818 192.000
54.87827 161.000
54.92835 175.000
54.97844 163.000
55.02853 137.000
55.07862 169.000
55.12870 150.000
55.17879 151.000
55.22888 178.000
55.27897 181.000
55.32905 159.000
55.37914 166.000
55.42923 198.000
55.47931 154.000
55.52940 172.000
55.57949 145.000
55.62958 156.000
55.67966 165.000
55.72975 155.000
55.77984 154.000
55.82992 162.000
55.88001 167.000
55.93010 193.000
55.98019 159.000
56.03027 151.000
56.08036 157.000
56.13045 148.000
56.18054 177.000
56.23062 162.000
56.28071 154.000
56.33080 135.000
56.38088 178.000
56.43097 163.000
56.48106 138.000
56.53115 151.000
56.58123 150.000
56.63132 148.000
56.68141 145.000
56.73149 169.000
56.78158 167.000
56.83167 191.000
56.88176 185.000
56.93184 145.000
56.98193 166.000
57.03202 167.000
57.08211 156.000
57.13219 159.000
57.18228 180.000
57.23237 145.000
57.28245 143.000
57.33254 147.000
57.38263 164.000
57.43272 150.000
57.48280 172.000
57.53289 176.000
57.58298 167.000
57.63307 164.000
57.68315 146.000
57.73324 161.000
57.78333 149.000
57.83341 173.000
57.88350 143.000
57.93359 152.000
57.98368 178.000
58.03376 150.000
58.08385 202.000
58.13394 173.000
58.18402 172.000
58.23411 170.000
58.28420 162.000
58.33429 160.000
58.38437 161.000
58.43446 162.000
58.48455 158.000
58.53464 193.000
58.58472 174.000
58.63481 148.000
58.68490 150.000
58.73498 156.000
58.78507 143.000
58.83516 173.000
58.88525 201.000
58.93533 173.000
58.98542 229.000
59.03551 225.000
59.08560 212.000
59.13568 194.000
59.18577 229.000
59.23586 169.000
59.28594 197.000
59.33603 184.000
59.38612 167.000
59.43621 179.000
59.48629 150.000
59.53638 179.000
59.58647 170.000
59.63655 164.000
59.68664 147.000
59.73673 165.000
59.78682 165.000
59.83690 173.000
59.88699 154.000
59.93708 171.000
59.98717 145.000