File: data/XRD/sample_7.xy
10.00010 569.000
10.05019 583.000
10.10027 611.000
10.15036 592.000
10.20045 562.000
10.25054 574.000
10.30062 580.000
10.35071 582.000
10.40080 562.000
10.45089 626.000
10.50097 547.000
10.55106 544.000
10.60115 551.000
10.65123 562.000
10.70132 580.000
10.75141 545.000
10.80150 535.000
10.85158 579.000
10.90167 566.000
10.95176 606.000
11.00184 573.000
11.05193 546.000
11.10202 614.000
11.15211 545.000
11.20219 552.000
11.25228 571.000
11.30237 594.000
11.35246 553.000
11.40254 556.000
11.45263 561.000
11.50272 572.000
11.55280 540.000
11.60289 526.000
11.65298 564.000
11.70307 559.000
11.75315 541.000
11.80324 566.000
11.85333 566.000
11.90342 579.000
11.95350 613.000
12.00359 558.000
12.05368 557.000
12.10376 564.000
12.15385 637.000
12.20394 596.000
12.25403 545.000
12.30411 575.000
12.35420 551.000
12.40429 596.000
12.45437 634.000
12.50446 642.000
12.55455 659.000
12.60464 648.000
12.65472 745.000
12.70481 813.000
12.75490 956.000
12.80499 1208.000
12.85507 1409.000
12.90516 1751.000
12.95525 1974.000
13.00533 2150.000
13.05542 2113.000
13.10551 1910.000
13.15560 1510.000
13.20568 1313.000
13.25577 1092.000
13.30586 870.000
13.35595 771.000
13.40603 733.000
13.45612 649.000
13.50621 559.000
13.55629 579.000
13.60638 567.000
13.65647 586.000
13.70656 560.000
13.75664 549.000
13.80673 542.000
13.85682 522.000
13.90690 539.000
13.95699 515.000
14.00708 469.000
14.05717 548.000
14.10725 500.000
14.15734 522.000
14.20743 583.000
14.25752 512.000
14.30760 571.000
14.35769 632.000
14.40778 737.000
14.45786 1236.000
14.50795 2047.000
14.55804 2287.000
14.60813 1151.000
14.65821 651.000
14.70830 562.000
14.75839 552.000
14.80848 530.000
14.85856 442.000
14.90865 478.000
14.95874 461.000
15.00882 440.000
15.05891 469.000
15.10900 498.000
15.15909 519.000
15.20917 448.000
15.25926 470.000
15.30935 447.000
15.35943 457.000
15.40952 484.000
15.45961 439.000
15.50970 437.000
15.55978 487.000
15.60987 458.000
15.65996 475.000
15.71005 461.000
15.76013 437.000
15.81022 449.000
15.86031 462.000
15.91039 491.000
15.96048 445.000
16.01057 443.000
16.06066 443.000
16.11074 417.000
16.16083 450.000
16.21092 413.000
16.26101 442.000
16.31109 411.000
16.36118 426.000
16.41127 460.000
16.46135 418.000
16.51144 372.000
16.56153 446.000
16.61162 451.000
16.66170 414.000
16.71179 411.000
16.76188 391.000
16.81196 434.000
16.86205 436.000
16.91214 452.000
16.96223 423.000
17.01231 431.000
17.06240 436.000
17.11249 431.000
17.16258 407.000
17.21266 433.000
17.26275 425.000
17.31284 446.000
17.36292 469.000
17.41301 467.000
17.46310 437.000
17.51319 464.000
17.56327 445.000
17.61336 444.000
17.66345 434.000
17.71353 420.000
17.76362 427.000
17.81371 410.000
17.86380 395.000
17.91388 450.000
17.96397 406.000
18.01406 447.000
18.06415 438.000
18.11423 455.000
18.16432 413.000
18.21441 419.000
18.26449 476.000
18.31458 458.000
18.36467 455.000
18.41476 452.000
18.46484 461.000
18.51493 466.000
18.56502 457.000
18.61511 474.000
18.66519 438.000
18.71528 487.000
18.76537 463.000
18.81545 473.000
18.86554 473.000
18.91563 467.000
18.96572 493.000
19.01580 471.000
19.06589 494.000
19.11598 435.000
19.16606 494.000
19.21615 514.000
19.26624 491.000
19.31633 458.000
19.36641 472.000
19.41650 509.000
19.46659 490.000
19.51668 494.000
19.56676 462.000
19.61685 508.000
19.66694 522.000
19.71702 469.000
19.76711 541.000
19.81720 500.000
19.86729 524.000
19.91737 499.000
19.96746 535.000
20.01755 538.000
20.06764 558.000
20.11772 564.000
20.16781 529.000
20.21790 521.000
20.26798 527.000
20.31807 603.000
20.36816 563.000
20.41825 570.000
20.46833 629.000
20.51842 780.000
20.56851 845.000
20.61859 679.000
20.66868 606.000
20.71877 632.000
20.76886 606.000
20.81894 503.000
20.86903 586.000
20.91912 510.000
20.96921 540.000
21.01929 560.000
21.06938 574.000
21.11947 567.000
21.16955 544.000
21.21964 539.000
21.26973 551.000
21.31982 566.000
21.36990 573.000
21.41999 565.000
21.47008 596.000
21.52017 587.000
21.57025 606.000
21.62034 576.000
21.67043 570.000
21.72051 586.000
21.77060 588.000
21.82069 568.000
21.87078 574.000
21.92086 641.000
21.97095 576.000
22.02104 638.000
22.07112 621.000
22.12121 571.000
22.17130 564.000
22.22139 578.000
22.27147 587.000
22.32156 574.000
22.37165 598.000
22.42174 591.000
22.47182 599.000
22.52191 590.000
22.57200 627.000
22.62208 589.000
22.67217 656.000
22.72226 585.000
22.77235 614.000
22.82243 614.000
22.87252 720.000
22.92261 788.000
22.97270 774.000
23.02278 738.000
23.07287 665.000
23.12296 640.000
23.17304 644.000
23.22313 636.000
23.27322 577.000
23.32331 592.000
23.37339 595.000
23.42348 589.000
23.47357 622.000
23.52365 614.000
23.57374 621.000
23.62383 633.000
23.67392 575.000
23.72400 615.000
23.77409 594.000
23.82418 652.000
23.87427 609.000
23.92435 574.000
23.97444 591.000
24.02453 611.000
24.07461 653.000
24.12470 645.000
24.17479 585.000
24.22488 594.000
24.27496 609.000
24.32505 607.000
24.37514 615.000
24.42523 632.000
24.47531 606.000
24.52540 604.000
24.57549 570.000
24.62557 619.000
24.67566 548.000
24.72575 604.000
24.77584 624.000
24.82592 624.000
24.87601 637.000
24.92610 629.000
24.97618 736.000
25.02627 757.000
25.07636 921.000
25.12645 986.000
25.17653 878.000
25.22662 708.000
25.27671 610.000
25.32680 600.000
25.37688 579.000
25.42697 594.000
25.47706 621.000
25.52714 668.000
25.57723 657.000
25.62732 656.000
25.67741 756.000
25.72749 784.000
25.77758 838.000
25.82767 911.000
25.87776 944.000
25.92784 839.000
25.97793 848.000
26.02802 817.000
26.07810 700.000
26.12819 649.000
26.17828 612.000
26.22837 608.000
26.27845 507.000
26.32854 541.000
26.37863 564.000
26.42871 529.000
26.47880 559.000
26.52889 506.000
26.57898 514.000
26.62906 521.000
26.67915 473.000
26.72924 503.000
26.77933 494.000
26.82941 514.000
26.87950 510.000
26.92959 503.000
26.97967 493.000
27.02976 522.000
27.07985 498.000
27.12994 530.000
27.18002 514.000
27.23011 487.000
27.28020 483.000
27.33029 490.000
27.38037 450.000
27.43046 505.000
27.48055 483.000
27.53063 516.000
27.58072 467.000
27.63081 470.000
27.68090 471.000
27.73098 441.000
27.78107 452.000
27.83116 478.000
27.88124 479.000
27.93133 474.000
27.98142 483.000
28.03151 462.000
28.08159 463.000
28.13168 465.000
28.18177 477.000
28.23186 489.000
28.28194 453.000
28.33203 455.000
28.38212 447.000
28.43220 450.000
28.48229 461.000
28.53238 447.000
28.58247 495.000
28.63255 505.000
28.68264 501.000
28.73273 555.000
28.78282 615.000
28.83290 708.000
28.88299 880.000
28.93308 1317.000
28.98316 1963.000
29.03325 1841.000
29.08334 1368.000
29.13343 862.000
29.18351 549.000
29.23360 527.000
29.28369 461.000
29.33377 425.000
29.38386 418.000
29.43395 409.000
29.48404 406.000
29.53412 399.000
29.58421 450.000
29.63430 425.000
29.68439 408.000
29.73447 427.000
29.78456 429.000
29.83465 379.000
29.88473 394.000
29.93482 382.000
29.98491 393.000
30.03500 389.000
30.08508 380.000
30.13517 376.000
30.18526 361.000
30.23534 439.000
30.28543 378.000
30.33552 376.000
30.38561 353.000
30.43569 356.000
30.48578 379.000
30.53587 401.000
30.58596 371.000
30.63604 375.000
30.68613 378.000
30.73622 365.000
30.78630 368.000
30.83639 362.000
30.88648 362.000
30.93657 418.000
30.98665 356.000
31.03674 357.000
31.08683 356.000
31.13692 355.000
31.18700 375.000
31.23709 349.000
31.28718 335.000
31.33726 306.000
31.38735 338.000
31.43744 347.000
31.48753 328.000
31.53761 330.000
31.58770 320.000
31.63779 339.000
31.68787 360.000
31.73796 361.000
31.78805 327.000
31.83814 316.000
31.88822 324.000
31.93831 354.000
31.98840 325.000
32.03849 319.000
32.08857 320.000
32.13866 343.000
32.18875 414.000
32.23883 325.000
32.28892 364.000
32.33901 369.000
32.38910 387.000
32.43918 480.000
32.48927 552.000
32.53936 632.000
32.58945 594.000
32.63953 522.000
32.68962 414.000
32.73971 380.000
32.78979 316.000
32.83988 326.000
32.88997 337.000
32.94006 304.000
32.99014 313.000
33.04023 309.000
33.09032 311.000
33.14040 262.000
33.19049 320.000
33.24058 319.000
33.29067 303.000
33.34075 294.000
33.39084 290.000
33.44093 323.000
33.49102 284.000
33.54110 290.000
33.59119 271.000
33.64128 305.000
33.69136 339.000
33.74145 293.000
33.79154 274.000
33.84163 250.000
33.89171 295.000
33.94180 290.000
33.99189 305.000
34.04198 282.000
34.09206 300.000
34.14215 268.000
34.19224 258.000
34.24232 252.000
34.29241 296.000
34.34250 259.000
34.39259 292.000
34.44267 283.000
34.49276 286.000
34.54285 284.000
34.59293 263.000
34.64302 263.000
34.69311 287.000
34.74320 253.000
34.79328 289.000
34.84337 256.000
34.89346 278.000
34.94355 282.000
34.99363 277.000
35.04372 274.000
35.09381 259.000
35.14389 242.000
35.19398 273.000
35.24407 248.000
35.29416 295.000
35.34424 251.000
35.39433 273.000
35.44442 279.000
35.49451 241.000
35.54459 279.000
35.59468 293.000
35.64477 340.000
35.69485 322.000
35.74494 288.000
35.79503 314.000
35.84512 281.000
35.89520 258.000
35.94529 232.000
35.99538 233.000
36.04546 246.000
36.09555 270.000
36.14564 234.000
36.19573 220.000
36.24581 212.000
36.29590 238.000
36.34599 246.000
36.39608 212.000
36.44616 254.000
36.49625 222.000
36.54634 265.000
36.59642 215.000
36.64651 231.000
36.69660 235.000
36.74669 229.000
36.79677 259.000
36.84686 234.000
36.89695 229.000
36.94704 247.000
36.99712 252.000
37.04721 229.000
37.09730 237.000
37.14738 236.000
37.19747 243.000
37.24756 253.000
37.29765 216.000
37.34773 244.000
37.39782 249.000
37.44791 218.000
37.49799 221.000
37.54808 226.000
37.59817 209.000
37.64826 248.000
37.69834 221.000
37.74843 238.000
37.79852 222.000
37.84861 207.000
37.89869 253.000
37.94878 205.000
37.99887 197.000
38.04895 233.000
38.09904 215.000
38.14913 241.000
38.19922 220.000
38.24930 221.000
38.29939 271.000
38.34948 213.000
38.39957 233.000
38.44965 230.000
38.49974 231.000
38.54983 228.000
38.59991 253.000
38.65000 238.000
38.70009 278.000
38.75018 310.000
38.80026 317.000
38.85035 377.000
38.90044 419.000
38.95052 530.000
39.00061 523.000
39.05070 557.000
39.10079 516.000
39.15087 523.000
39.20096 470.000
39.25105 441.000
39.30114 376.000
39.35122 335.000
39.40131 303.000
39.45140 272.000
39.50148 297.000
39.55157 245.000
39.60166 240.000
39.65175 223.000
39.70183 224.000
39.75192 242.000
39.80201 203.000
39.85210 219.000
39.90218 215.000
39.95227 241.000
40.00236 232.000
40.05244 214.000
40.10253 213.000
40.15262 247.000
40.20271 209.000
40.25279 234.000
40.30288 173.000
40.35297 202.000
40.40305 215.000
40.45314 208.000
40.50323 215.000
40.55332 209.000
40.60340 212.000
40.65349 196.000
40.70358 210.000
40.75367 221.000
40.80375 234.000
40.85384 198.000
40.90393 200.000
40.95401 208.000
41.00410 185.000
41.05419 218.000
41.10428 249.000
41.15436 268.000
41.20445 255.000
41.25454 303.000
41.30463 302.000
41.35471 318.000
41.40480 393.000
41.45489 402.000
41.50497 383.000
41.55506 386.000
41.60515 299.000
41.65524 261.000
41.70532 247.000
41.75541 260.000
41.80550 231.000
41.85558 204.000
41.90567 206.000
41.95576 214.000
42.00585 200.000
42.05593 200.000
42.10602 235.000
42.15611 226.000
42.20620 238.000
42.25628 223.000
42.30637 211.000
42.35646 221.000
42.40654 200.000
42.45663 227.000
42.50672 229.000
42.55681 207.000
42.60689 213.000
42.65698 233.000
42.70707 221.000
42.75716 263.000
42.80724 262.000
42.85733 274.000
42.90742 254.000
42.95750 233.000
43.00759 213.000
43.05768 196.000
43.10777 233.000
43.15785 209.000
43.20794 228.000
43.25803 211.000
43.30811 223.000
43.35820 196.000
43.40829 199.000
43.45838 221.000
43.50846 267.000
43.55855 199.000
43.60864 220.000
43.65873 231.000
43.70881 189.000
43.75890 251.000
43.80899 218.000
43.85907 248.000
43.90916 240.000
43.95925 260.000
44.00934 256.000
44.05942 250.000
44.10951 279.000
44.15960 223.000
44.20968 196.000
44.25977 228.000
44.30986 225.000
44.35995 259.000
44.41003 215.000
44.46012 209.000
44.51021 187.000
44.56030 203.000
44.61038 223.000
44.66047 215.000
44.71056 208.000
44.76064 203.000
44.81073 208.000
44.86082 217.000
44.91091 204.000
44.96099 204.000
45.01108 214.000
45.06117 237.000
45.11126 222.000
45.16134 234.000
45.21143 246.000
45.26152 225.000
45.31160 262.000
45.36169 248.000
45.41178 245.000
45.46187 255.000
45.51195 203.000
45.56204 191.000
45.61213 215.000
45.66221 215.000
45.71230 202.000
45.76239 197.000
45.81248 175.000
45.86256 209.000
45.91265 211.000
45.96274 191.000
46.01283 203.000
46.06291 226.000
46.11300 185.000
46.16309 213.000
46.21317 203.000
46.26326 203.000
46.31335 198.000
46.36344 208.000
46.41352 202.000
46.46361 200.000
46.51370 205.000
46.56379 221.000
46.61387 220.000
46.66396 209.000
46.71405 190.000
46.76413 200.000
46.81422 199.000
46.86431 198.000
46.91440 199.000
46.96448 197.000
47.01457 222.000
47.06466 194.000
47.11474 211.000
47.16483 195.000
47.21492 189.000
47.26501 203.000
47.31509 185.000
47.36518 194.000
47.41527 215.000
47.46536 194.000
47.51544 201.000
47.56553 199.000
47.61562 209.000
47.66570 209.000
47.71579 219.000
47.76588 172.000
47.81597 174.000
47.86605 195.000
47.91614 194.000
47.96623 199.000
48.01632 204.000
48.06640 220.000
48.11649 194.000
48.16658 221.000
48.21666 198.000
48.26675 189.000
48.31684 211.000
48.36693 171.000
48.41701 173.000
48.46710 172.000
48.51719 217.000
48.56727 194.000
48.61736 199.000
48.66745 220.000
48.71754 199.000
48.76762 207.000
48.81771 193.000
48.86780 236.000
48.91789 194.000
48.96797 192.000
49.01806 208.000
49.06815 174.000
49.11823 172.000
49.16832 182.000
49.21841 166.000
49.26850 196.000
49.31858 170.000
49.36867 186.000
49.41876 185.000
49.46885 171.000
49.51893 153.000
49.56902 161.000
49.61911 183.000
49.66919 167.000
49.71928 202.000
49.76937 175.000
49.81946 191.000
49.86954 198.000
49.91963 200.000
49.96972 211.000
50.01980 149.000
50.06989 201.000
50.11998 202.000
50.17007 150.000
50.22015 163.000
50.27024 189.000
50.32033 188.000
50.37042 223.000
50.42050 208.000
50.47059 167.000
50.52068 188.000
50.57076 181.000
50.62085 190.000
50.67094 189.000
50.72103 195.000
50.77111 205.000
50.82120 192.000
50.87129 171.000
50.92138 186.000
50.97146 171.000
51.02155 216.000
51.07164 215.000
51.12172 185.000
51.17181 201.000
51.22190 200.000
51.27199 208.000
51.32207 221.000
51.37216 201.000
51.42225 190.000
51.47233 161.000
51.52242 206.000
51.57251 189.000
51.62260 187.000
51.67268 173.000
51.72277 196.000
51.77286 202.000
51.82295 171.000
51.87303 183.000
51.92312 189.000
51.97321 191.000
52.02329 188.000
52.07338 171.000
52.12347 206.000
52.17356 176.000
52.22364 195.000
52.27373 205.000
52.32382 193.000
52.37391 193.000
52.42399 249.000
52.47408 229.000
52.52417 327.000
52.57425 397.000
52.62434 403.000
52.67443 402.000
52.72452 446.000
52.77460 466.000
52.82469 462.000
52.87478 499.000
52.92486 480.000
52.97495 415.000
53.02504 403.000
53.07513 382.000
53.12521 315.000
53.17530 281.000
53.22539 278.000
53.27548 227.000
53.32556 230.000
53.37565 214.000
53.42574 193.000
53.47582 188.000
53.52591 175.000
53.57600 178.000
53.62609 185.000
53.67617 208.000
53.72626 174.000
53.77635 167.000
53.82644 188.000
53.87652 165.000
53.92661 154.000
53.97670 159.000
54.02678 145.000
54.07687 179.000
54.12696 182.000
54.17705 153.000
54.22713 166.000
54.27722 183.000
54.32731 171.000
54.37739 160.000
54.42748 158.000
54.47757 166.000
54.52766 173.000
54.57774 165.000
54.62783 181.000
54.67792 197.000
54.72801 172.000
54.77809 192.000
54.82818 150.000
54.87827 159.000
54.92835 176.000
54.97844 138.000
55.02853 179.000
55.07862 151.000
55.12870 170.000
55.17879 151.000
55.22888 149.000
55.27897 201.000
55.32905 162.000
55.37914 171.000
55.42923 154.000
55.47931 160.000
55.52940 170.000
55.57949 162.000
55.62958 159.000
55.67966 171.000
55.72975 186.000
55.77984 158.000
55.82992 150.000
55.88001 143.000
55.93010 175.000
55.98019 172.000
56.03027 161.000
56.08036 165.000
56.13045 175.000
56.18054 153.000
56.23062 167.000
56.28071 151.000
56.33080 167.000
56.38088 159.000
56.43097 156.000
56.48106 153.000
56.53115 151.000
56.58123 164.000
56.63132 164.000
56.68141 170.000
56.73149 155.000
56.78158 181.000
56.83167 157.000
56.88176 173.000
56.93184 168.000
56.98193 156.000
57.03202 169.000
57.08211 166.000
57.13219 162.000
57.18228 178.000
57.23237 181.000
57.28245 165.000
57.33254 151.000
57.38263 158.000
57.43272 138.000
57.48280 165.000
57.53289 166.000
57.58298 161.000
57.63307 155.000
57.68315 152.000
57.73324 150.000
57.78333 141.000
57.83341 165.000
57.88350 154.000
57.93359 167.000
57.98368 160.000
58.03376 153.000
58.08385 160.000
58.13394 144.000
58.18402 135.000
58.23411 166.000
58.28420 171.000
58.33429 163.000
58.38437 184.000
58.43446 173.000
58.48455 143.000
58.53464 161.000
58.58472 171.000
58.63481 180.000
58.68490 163.000
58.73498 155.000
58.78507 145.000
58.83516 161.000
58.88525 178.000
58.93533 168.000
58.98542 173.000
59.03551 170.000
59.08560 169.000
59.13568 149.000
59.18577 188.000
59.23586 162.000
59.28594 151.000
59.33603 153.000
59.38612 149.000
59.43621 170.000
59.48629 160.000
59.53638 171.000
59.58647 194.000
59.63655 187.000
59.68664 177.000
59.73673 192.000
59.78682 157.000
59.83690 166.000
59.88699 173.000
59.93708 187.000
59.98717 165.000