File: data/XRD/sample_1.xy
10.00010 376.000
10.05019 379.000
10.10027 386.000
10.15036 424.000
10.20045 406.000
10.25054 343.000
10.30062 398.000
10.35071 395.000
10.40080 358.000
10.45089 372.000
10.50097 383.000
10.55106 365.000
10.60115 408.000
10.65123 361.000
10.70132 373.000
10.75141 419.000
10.80150 383.000
10.85158 390.000
10.90167 413.000
10.95176 369.000
11.00184 364.000
11.05193 392.000
11.10202 375.000
11.15211 350.000
11.20219 324.000
11.25228 360.000
11.30237 367.000
11.35246 393.000
11.40254 359.000
11.45263 353.000
11.50272 354.000
11.55280 380.000
11.60289 392.000
11.65298 330.000
11.70307 360.000
11.75315 319.000
11.80324 372.000
11.85333 359.000
11.90342 375.000
11.95350 338.000
12.00359 342.000
12.05368 370.000
12.10376 354.000
12.15385 345.000
12.20394 385.000
12.25403 374.000
12.30411 370.000
12.35420 387.000
12.40429 353.000
12.45437 354.000
12.50446 341.000
12.55455 367.000
12.60464 361.000
12.65472 356.000
12.70481 321.000
12.75490 321.000
12.80499 381.000
12.85507 362.000
12.90516 351.000
12.95525 378.000
13.00533 358.000
13.05542 351.000
13.10551 330.000
13.15560 328.000
13.20568 348.000
13.25577 332.000
13.30586 345.000
13.35595 322.000
13.40603 351.000
13.45612 389.000
13.50621 329.000
13.55629 332.000
13.60638 336.000
13.65647 376.000
13.70656 354.000
13.75664 346.000
13.80673 399.000
13.85682 422.000
13.90690 364.000
13.95699 386.000
14.00708 405.000
14.05717 435.000
14.10725 507.000
14.15734 758.000
14.20743 1666.000
14.25752 4975.000
14.30760 5790.000
14.35769 1940.000
14.40778 764.000
14.45786 687.000
14.50795 557.000
14.55804 467.000
14.60813 370.000
14.65821 357.000
14.70830 396.000
14.75839 339.000
14.80848 359.000
14.85856 315.000
14.90865 351.000
14.95874 342.000
15.00882 340.000
15.05891 305.000
15.10900 335.000
15.15909 291.000
15.20917 346.000
15.25926 338.000
15.30935 302.000
15.35943 315.000
15.40952 297.000
15.45961 281.000
15.50970 298.000
15.55978 346.000
15.60987 293.000
15.65996 317.000
15.71005 324.000
15.76013 305.000
15.81022 318.000
15.86031 268.000
15.91039 295.000
15.96048 315.000
16.01057 326.000
16.06066 298.000
16.11074 318.000
16.16083 303.000
16.21092 295.000
16.26101 296.000
16.31109 267.000
16.36118 287.000
16.41127 295.000
16.46135 261.000
16.51144 260.000
16.56153 276.000
16.61162 269.000
16.66170 294.000
16.71179 303.000
16.76188 308.000
16.81196 285.000
16.86205 285.000
16.91214 293.000
16.96223 305.000
17.01231 298.000
17.06240 308.000
17.11249 307.000
17.16258 286.000
17.21266 284.000
17.26275 294.000
17.31284 314.000
17.36292 276.000
17.41301 254.000
17.46310 301.000
17.51319 277.000
17.56327 308.000
17.61336 298.000
17.66345 291.000
17.71353 318.000
17.76362 297.000
17.81371 300.000
17.86380 335.000
17.91388 285.000
17.96397 319.000
18.01406 273.000
18.06415 314.000
18.11423 336.000
18.16432 315.000
18.21441 291.000
18.26449 301.000
18.31458 309.000
18.36467 322.000
18.41476 295.000
18.46484 285.000
18.51493 298.000
18.56502 291.000
18.61511 320.000
18.66519 328.000
18.71528 341.000
18.76537 308.000
18.81545 327.000
18.86554 307.000
18.91563 312.000
18.96572 328.000
19.01580 321.000
19.06589 350.000
19.11598 324.000
19.16606 315.000
19.21615 322.000
19.26624 342.000
19.31633 318.000
19.36641 292.000
19.41650 321.000
19.46659 338.000
19.51668 361.000
19.56676 348.000
19.61685 344.000
19.66694 336.000
19.71702 346.000
19.76711 355.000
19.81720 312.000
19.86729 344.000
19.91737 353.000
19.96746 342.000
20.01755 377.000
20.06764 380.000
20.11772 392.000
20.16781 374.000
20.21790 378.000
20.26798 413.000
20.31807 328.000
20.36816 379.000
20.41825 405.000
20.46833 362.000
20.51842 375.000
20.56851 388.000
20.61859 376.000
20.66868 364.000
20.71877 379.000
20.76886 402.000
20.81894 407.000
20.86903 377.000
20.91912 382.000
20.96921 412.000
21.01929 375.000
21.06938 426.000
21.11947 380.000
21.16955 387.000
21.21964 404.000
21.26973 392.000
21.31982 415.000
21.36990 394.000
21.41999 382.000
21.47008 406.000
21.52017 418.000
21.57025 440.000
21.62034 378.000
21.67043 427.000
21.72051 399.000
21.77060 408.000
21.82069 416.000
21.87078 434.000
21.92086 406.000
21.97095 403.000
22.02104 466.000
22.07112 402.000
22.12121 415.000
22.17130 396.000
22.22139 373.000
22.27147 434.000
22.32156 404.000
22.37165 454.000
22.42174 442.000
22.47182 443.000
22.52191 422.000
22.57200 431.000
22.62208 410.000
22.67217 409.000
22.72226 468.000
22.77235 435.000
22.82243 443.000
22.87252 420.000
22.92261 421.000
22.97270 467.000
23.02278 456.000
23.07287 403.000
23.12296 413.000
23.17304 406.000
23.22313 431.000
23.27322 404.000
23.32331 375.000
23.37339 450.000
23.42348 404.000
23.47357 404.000
23.52365 394.000
23.57374 394.000
23.62383 434.000
23.67392 404.000
23.72400 422.000
23.77409 428.000
23.82418 451.000
23.87427 447.000
23.92435 432.000
23.97444 432.000
24.02453 425.000
24.07461 442.000
24.12470 417.000
24.17479 446.000
24.22488 431.000
24.27496 446.000
24.32505 446.000
24.37514 394.000
24.42523 426.000
24.47531 424.000
24.52540 413.000
24.57549 498.000
24.62557 747.000
24.67566 686.000
24.72575 476.000
24.77584 436.000
24.82592 384.000
24.87601 438.000
24.92610 385.000
24.97618 403.000
25.02627 421.000
25.07636 404.000
25.12645 373.000
25.17653 399.000
25.22662 377.000
25.27671 367.000
25.32680 415.000
25.37688 377.000
25.42697 383.000
25.47706 373.000
25.52714 410.000
25.57723 371.000
25.62732 378.000
25.67741 422.000
25.72749 382.000
25.77758 402.000
25.82767 368.000
25.87776 362.000
25.92784 368.000
25.97793 352.000
26.02802 350.000
26.07810 363.000
26.12819 327.000
26.17828 320.000
26.22837 374.000
26.27845 370.000
26.32854 328.000
26.37863 348.000
26.42871 361.000
26.47880 372.000
26.52889 360.000
26.57898 384.000
26.62906 334.000
26.67915 383.000
26.72924 346.000
26.77933 344.000
26.82941 355.000
26.87950 338.000
26.92959 327.000
26.97967 378.000
27.02976 330.000
27.07985 361.000
27.12994 352.000
27.18002 320.000
27.23011 334.000
27.28020 348.000
27.33029 343.000
27.38037 322.000
27.43046 327.000
27.48055 354.000
27.53063 362.000
27.58072 347.000
27.63081 322.000
27.68090 359.000
27.73098 305.000
27.78107 324.000
27.83116 319.000
27.88124 312.000
27.93133 341.000
27.98142 339.000
28.03151 343.000
28.08159 368.000
28.13168 347.000
28.18177 414.000
28.23186 445.000
28.28194 410.000
28.33203 484.000
28.38212 674.000
28.43220 1516.000
28.48229 3644.000
28.53238 2440.000
28.58247 1458.000
28.63255 633.000
28.68264 539.000
28.73273 445.000
28.78282 372.000
28.83290 339.000
28.88299 326.000
28.93308 298.000
28.98316 313.000
29.03325 322.000
29.08334 284.000
29.13343 277.000
29.18351 308.000
29.23360 292.000
29.28369 284.000
29.33377 320.000
29.38386 269.000
29.43395 265.000
29.48404 276.000
29.53412 240.000
29.58421 321.000
29.63430 257.000
29.68439 279.000
29.73447 295.000
29.78456 273.000
29.83465 279.000
29.88473 272.000
29.93482 301.000
29.98491 257.000
30.03500 281.000
30.08508 268.000
30.13517 261.000
30.18526 269.000
30.23534 232.000
30.28543 232.000
30.33552 266.000
30.38561 262.000
30.43569 262.000
30.48578 266.000
30.53587 265.000
30.58596 256.000
30.63604 236.000
30.68613 234.000
30.73622 220.000
30.78630 245.000
30.83639 268.000
30.88648 251.000
30.93657 250.000
30.98665 224.000
31.03674 232.000
31.08683 234.000
31.13692 259.000
31.18700 248.000
31.23709 254.000
31.28718 241.000
31.33726 239.000
31.38735 246.000
31.43744 249.000
31.48753 257.000
31.53761 236.000
31.58770 229.000
31.63779 234.000
31.68787 265.000
31.73796 264.000
31.78805 280.000
31.83814 460.000
31.88822 639.000
31.93831 492.000
31.98840 358.000
32.03849 260.000
32.08857 257.000
32.13866 223.000
32.18875 241.000
32.23883 208.000
32.28892 203.000
32.33901 232.000
32.38910 222.000
32.43918 215.000
32.48927 229.000
32.53936 224.000
32.58945 206.000
32.63953 227.000
32.68962 205.000
32.73971 212.000
32.78979 175.000
32.83988 201.000
32.88997 225.000
32.94006 187.000
32.99014 208.000
33.04023 237.000
33.09032 217.000
33.14040 187.000
33.19049 203.000
33.24058 206.000
33.29067 212.000
33.34075 200.000
33.39084 181.000
33.44093 200.000
33.49102 208.000
33.54110 216.000
33.59119 190.000
33.64128 200.000
33.69136 179.000
33.74145 189.000
33.79154 186.000
33.84163 180.000
33.89171 183.000
33.94180 184.000
33.99189 199.000
34.04198 204.000
34.09206 215.000
34.14215 194.000
34.19224 202.000
34.24232 193.000
34.29241 187.000
34.34250 185.000
34.39259 211.000
34.44267 182.000
34.49276 198.000
34.54285 177.000
34.59293 169.000
34.64302 193.000
34.69311 185.000
34.74320 178.000
34.79328 180.000
34.84337 191.000
34.89346 193.000
34.94355 172.000
34.99363 189.000
35.04372 171.000
35.09381 161.000
35.14389 152.000
35.19398 179.000
35.24407 179.000
35.29416 193.000
35.34424 178.000
35.39433 159.000
35.44442 163.000
35.49451 156.000
35.54459 164.000
35.59468 184.000
35.64477 166.000
35.69485 152.000
35.74494 178.000
35.79503 160.000
35.84512 185.000
35.89520 169.000
35.94529 184.000
35.99538 173.000
36.04546 163.000
36.09555 167.000
36.14564 172.000
36.19573 167.000
36.24581 160.000
36.29590 170.000
36.34599 141.000
36.39608 153.000
36.44616 161.000
36.49625 158.000
36.54634 187.000
36.59642 134.000
36.64651 193.000
36.69660 159.000
36.74669 164.000
36.79677 177.000
36.84686 182.000
36.89695 165.000
36.94704 176.000
36.99712 160.000
37.04721 161.000
37.09730 151.000
37.14738 139.000
37.19747 163.000
37.24756 175.000
37.29765 137.000
37.34773 153.000
37.39782 162.000
37.44791 136.000
37.49799 143.000
37.54808 160.000
37.59817 157.000
37.64826 172.000
37.69834 153.000
37.74843 143.000
37.79852 127.000
37.84861 133.000
37.89869 130.000
37.94878 150.000
37.99887 170.000
38.04895 151.000
38.09904 159.000
38.14913 151.000
38.19922 155.000
38.24930 135.000
38.29939 138.000
38.34948 120.000
38.39957 142.000
38.44965 149.000
38.49974 133.000
38.54983 142.000
38.59991 146.000
38.65000 139.000
38.70009 154.000
38.75018 148.000
38.80026 153.000
38.85035 132.000
38.90044 146.000
38.95052 170.000
39.00061 159.000
39.05070 138.000
39.10079 127.000
39.15087 133.000
39.20096 149.000
39.25105 134.000
39.30114 131.000
39.35122 133.000
39.40131 137.000
39.45140 120.000
39.50148 142.000
39.55157 134.000
39.60166 157.000
39.65175 142.000
39.70183 135.000
39.75192 142.000
39.80201 138.000
39.85210 137.000
39.90218 146.000
39.95227 144.000
40.00236 155.000
40.05244 132.000
40.10253 152.000
40.15262 160.000
40.20271 146.000
40.25279 144.000
40.30288 151.000
40.35297 131.000
40.40305 168.000
40.45314 169.000
40.50323 238.000
40.55332 435.000
40.60340 333.000
40.65349 325.000
40.70358 220.000
40.75367 189.000
40.80375 154.000
40.85384 154.000
40.90393 136.000
40.95401 160.000
41.00410 127.000
41.05419 121.000
41.10428 152.000
41.15436 139.000
41.20445 135.000
41.25454 133.000
41.30463 156.000
41.35471 155.000
41.40480 159.000
41.45489 158.000
41.50497 149.000
41.55506 141.000
41.60515 151.000
41.65524 137.000
41.70532 134.000
41.75541 144.000
41.80550 150.000
41.85558 143.000
41.90567 153.000
41.95576 135.000
42.00585 148.000
42.05593 153.000
42.10602 149.000
42.15611 129.000
42.20620 152.000
42.25628 180.000
42.30637 150.000
42.35646 149.000
42.40654 157.000
42.45663 119.000
42.50672 134.000
42.55681 144.000
42.60689 168.000
42.65698 152.000
42.70707 149.000
42.75716 144.000
42.80724 146.000
42.85733 134.000
42.90742 148.000
42.95750 158.000
43.00759 153.000
43.05768 198.000
43.10777 306.000
43.15785 270.000
43.20794 246.000
43.25803 200.000
43.30811 164.000
43.35820 132.000
43.40829 167.000
43.45838 167.000
43.50846 125.000
43.55855 142.000
43.60864 133.000
43.65873 145.000
43.70881 117.000
43.75890 136.000
43.80899 145.000
43.85907 136.000
43.90916 164.000
43.95925 140.000
44.00934 174.000
44.05942 137.000
44.10951 138.000
44.15960 118.000
44.20968 123.000
44.25977 155.000
44.30986 135.000
44.35995 145.000
44.41003 142.000
44.46012 136.000
44.51021 154.000
44.56030 150.000
44.61038 141.000
44.66047 145.000
44.71056 170.000
44.76064 146.000
44.81073 164.000
44.86082 143.000
44.91091 145.000
44.96099 152.000
45.01108 155.000
45.06117 134.000
45.11126 155.000
45.16134 151.000
45.21143 116.000
45.26152 138.000
45.31160 142.000
45.36169 123.000
45.41178 139.000
45.46187 144.000
45.51195 138.000
45.56204 146.000
45.61213 152.000
45.66221 136.000
45.71230 155.000
45.76239 126.000
45.81248 124.000
45.86256 118.000
45.91265 167.000
45.96274 137.000
46.01283 129.000
46.06291 140.000
46.11300 120.000
46.16309 146.000
46.21317 134.000
46.26326 129.000
46.31335 138.000
46.36344 137.000
46.41352 116.000
46.46361 113.000
46.51370 162.000
46.56379 138.000
46.61387 117.000
46.66396 138.000
46.71405 137.000
46.76413 143.000
46.81422 154.000
46.86431 132.000
46.91440 132.000
46.96448 114.000
47.01457 143.000
47.06466 130.000
47.11474 115.000
47.16483 125.000
47.21492 124.000
47.26501 126.000
47.31509 147.000
47.36518 125.000
47.41527 136.000
47.46536 143.000
47.51544 130.000
47.56553 126.000
47.61562 128.000
47.66570 132.000
47.71579 124.000
47.76588 134.000
47.81597 147.000
47.86605 144.000
47.91614 164.000
47.96623 138.000
48.01632 153.000
48.06640 114.000
48.11649 137.000
48.16658 140.000
48.21666 158.000
48.26675 140.000
48.31684 124.000
48.36693 148.000
48.41701 124.000
48.46710 129.000
48.51719 129.000
48.56727 135.000
48.61736 101.000
48.66745 122.000
48.71754 115.000
48.76762 140.000
48.81771 118.000
48.86780 138.000
48.91789 122.000
48.96797 134.000
49.01806 134.000
49.06815 121.000
49.11823 113.000
49.16832 108.000
49.21841 114.000
49.26850 135.000
49.31858 132.000
49.36867 148.000
49.41876 112.000
49.46885 132.000
49.51893 107.000
49.56902 136.000
49.61911 136.000
49.66919 122.000
49.71928 124.000
49.76937 130.000
49.81946 110.000
49.86954 131.000
49.91963 135.000
49.96972 130.000
50.01980 143.000
50.06989 129.000
50.11998 150.000
50.17007 136.000
50.22015 145.000
50.27024 123.000
50.32033 142.000
50.37042 104.000
50.42050 122.000
50.47059 114.000
50.52068 131.000
50.57076 111.000
50.62085 118.000
50.67094 119.000
50.72103 127.000
50.77111 114.000
50.82120 106.000
50.87129 124.000
50.92138 133.000
50.97146 120.000
51.02155 121.000
51.07164 119.000
51.12172 120.000
51.17181 102.000
51.22190 123.000
51.27199 115.000
51.32207 100.000
51.37216 130.000
51.42225 114.000
51.47233 117.000
51.52242 132.000
51.57251 131.000
51.62260 113.000
51.67268 105.000
51.72277 119.000
51.77286 104.000
51.82295 126.000
51.87303 122.000
51.92312 131.000
51.97321 107.000
52.02329 123.000
52.07338 103.000
52.12347 112.000
52.17356 128.000
52.22364 116.000
52.27373 113.000
52.32382 126.000
52.37391 136.000
52.42399 128.000
52.47408 128.000
52.52417 119.000
52.57425 109.000
52.62434 115.000
52.67443 117.000
52.72452 112.000
52.77460 127.000
52.82469 131.000
52.87478 108.000
52.92486 96.000
52.97495 95.000
53.02504 120.000
53.07513 106.000
53.12521 94.000
53.17530 122.000
53.22539 116.000
53.27548 116.000
53.32556 104.000
53.37565 99.000
53.42574 122.000
53.47582 109.000
53.52591 103.000
53.57600 98.000
53.62609 107.000
53.67617 115.000
53.72626 113.000
53.77635 100.000
53.82644 110.000
53.87652 127.000
53.92661 98.000
53.97670 117.000
54.02678 122.000
54.07687 109.000
54.12696 104.000
54.17705 95.000
54.22713 121.000
54.27722 104.000
54.32731 107.000
54.37739 116.000
54.42748 111.000
54.47757 118.000
54.52766 104.000
54.57774 113.000
54.62783 99.000
54.67792 107.000
54.72801 94.000
54.77809 116.000
54.82818 109.000
54.87827 117.000
54.92835 107.000
54.97844 118.000
55.02853 107.000
55.07862 115.000
55.12870 105.000
55.17879 119.000
55.22888 111.000
55.27897 105.000
55.32905 112.000
55.37914 113.000
55.42923 116.000
55.47931 102.000
55.52940 114.000
55.57949 107.000
55.62958 114.000
55.67966 116.000
55.72975 128.000
55.77984 115.000
55.82992 106.000
55.88001 105.000
55.93010 108.000
55.98019 106.000
56.03027 108.000
56.08036 115.000
56.13045 103.000
56.18054 94.000
56.23062 120.000
56.28071 105.000
56.33080 117.000
56.38088 90.000
56.43097 119.000
56.48106 96.000
56.53115 97.000
56.58123 125.000
56.63132 102.000
56.68141 99.000
56.73149 109.000
56.78158 96.000
56.83167 113.000
56.88176 115.000
56.93184 100.000
56.98193 114.000
57.03202 101.000
57.08211 110.000
57.13219 105.000
57.18228 124.000
57.23237 117.000
57.28245 105.000
57.33254 110.000
57.38263 100.000
57.43272 104.000
57.48280 74.000
57.53289 118.000
57.58298 109.000
57.63307 123.000
57.68315 115.000
57.73324 99.000
57.78333 108.000
57.83341 110.000
57.88350 108.000
57.93359 108.000
57.98368 117.000
58.03376 123.000
58.08385 96.000
58.13394 100.000
58.18402 96.000
58.23411 107.000
58.28420 99.000
58.33429 104.000
58.38437 120.000
58.43446 112.000
58.48455 120.000
58.53464 161.000
58.58472 167.000
58.63481 135.000
58.68490 145.000
58.73498 155.000
58.78507 112.000
58.83516 134.000
58.88525 130.000
58.93533 101.000
58.98542 93.000
59.03551 116.000
59.08560 119.000
59.13568 108.000
59.18577 120.000
59.23586 106.000
59.28594 96.000
59.33603 108.000
59.38612 110.000
59.43621 81.000
59.48629 106.000
59.53638 116.000
59.58647 111.000
59.63655 107.000
59.68664 107.000
59.73673 109.000
59.78682 129.000
59.83690 105.000
59.88699 105.000
59.93708 90.000
59.98717 105.000