File: data/XRD/sample_8.xy
10.00010 621.000
10.05019 600.000
10.10027 577.000
10.15036 612.000
10.20045 590.000
10.25054 608.000
10.30062 578.000
10.35071 571.000
10.40080 571.000
10.45089 590.000
10.50097 598.000
10.55106 602.000
10.60115 604.000
10.65123 607.000
10.70132 580.000
10.75141 598.000
10.80150 545.000
10.85158 526.000
10.90167 555.000
10.95176 586.000
11.00184 531.000
11.05193 567.000
11.10202 569.000
11.15211 565.000
11.20219 591.000
11.25228 609.000
11.30237 539.000
11.35246 561.000
11.40254 537.000
11.45263 599.000
11.50272 559.000
11.55280 580.000
11.60289 580.000
11.65298 565.000
11.70307 581.000
11.75315 576.000
11.80324 540.000
11.85333 560.000
11.90342 564.000
11.95350 570.000
12.00359 572.000
12.05368 551.000
12.10376 542.000
12.15385 511.000
12.20394 556.000
12.25403 534.000
12.30411 543.000
12.35420 575.000
12.40429 496.000
12.45437 551.000
12.50446 548.000
12.55455 563.000
12.60464 567.000
12.65472 545.000
12.70481 578.000
12.75490 547.000
12.80499 527.000
12.85507 552.000
12.90516 560.000
12.95525 616.000
13.00533 616.000
13.05542 626.000
13.10551 570.000
13.15560 594.000
13.20568 581.000
13.25577 538.000
13.30586 533.000
13.35595 556.000
13.40603 517.000
13.45612 529.000
13.50621 529.000
13.55629 490.000
13.60638 541.000
13.65647 509.000
13.70656 500.000
13.75664 509.000
13.80673 537.000
13.85682 494.000
13.90690 504.000
13.95699 545.000
14.00708 521.000
14.05717 562.000
14.10725 517.000
14.15734 528.000
14.20743 550.000
14.25752 600.000
14.30760 823.000
14.35769 1176.000
14.40778 1661.000
14.45786 1817.000
14.50795 1269.000
14.55804 825.000
14.60813 607.000
14.65821 541.000
14.70830 505.000
14.75839 530.000
14.80848 512.000
14.85856 537.000
14.90865 511.000
14.95874 487.000
15.00882 443.000
15.05891 489.000
15.10900 487.000
15.15909 452.000
15.20917 511.000
15.25926 433.000
15.30935 469.000
15.35943 462.000
15.40952 438.000
15.45961 463.000
15.50970 459.000
15.55978 445.000
15.60987 460.000
15.65996 478.000
15.71005 474.000
15.76013 493.000
15.81022 454.000
15.86031 447.000
15.91039 425.000
15.96048 458.000
16.01057 481.000
16.06066 496.000
16.11074 435.000
16.16083 445.000
16.21092 474.000
16.26101 427.000
16.31109 446.000
16.36118 420.000
16.41127 432.000
16.46135 463.000
16.51144 436.000
16.56153 459.000
16.61162 458.000
16.66170 463.000
16.71179 446.000
16.76188 419.000
16.81196 438.000
16.86205 440.000
16.91214 416.000
16.96223 433.000
17.01231 463.000
17.06240 438.000
17.11249 444.000
17.16258 431.000
17.21266 415.000
17.26275 440.000
17.31284 427.000
17.36292 419.000
17.41301 479.000
17.46310 511.000
17.51319 461.000
17.56327 458.000
17.61336 438.000
17.66345 467.000
17.71353 451.000
17.76362 433.000
17.81371 444.000
17.86380 490.000
17.91388 457.000
17.96397 459.000
18.01406 481.000
18.06415 496.000
18.11423 474.000
18.16432 465.000
18.21441 483.000
18.26449 427.000
18.31458 456.000
18.36467 470.000
18.41476 488.000
18.46484 461.000
18.51493 493.000
18.56502 438.000
18.61511 454.000
18.66519 451.000
18.71528 506.000
18.76537 496.000
18.81545 541.000
18.86554 442.000
18.91563 504.000
18.96572 477.000
19.01580 474.000
19.06589 492.000
19.11598 529.000
19.16606 537.000
19.21615 512.000
19.26624 495.000
19.31633 492.000
19.36641 499.000
19.41650 549.000
19.46659 492.000
19.51668 492.000
19.56676 529.000
19.61685 559.000
19.66694 506.000
19.71702 535.000
19.76711 535.000
19.81720 559.000
19.86729 495.000
19.91737 500.000
19.96746 573.000
20.01755 547.000
20.06764 532.000
20.11772 596.000
20.16781 526.000
20.21790 587.000
20.26798 574.000
20.31807 583.000
20.36816 627.000
20.41825 586.000
20.46833 627.000
20.51842 601.000
20.56851 552.000
20.61859 584.000
20.66868 556.000
20.71877 564.000
20.76886 603.000
20.81894 559.000
20.86903 588.000
20.91912 587.000
20.96921 578.000
21.01929 587.000
21.06938 579.000
21.11947 621.000
21.16955 564.000
21.21964 616.000
21.26973 576.000
21.31982 601.000
21.36990 577.000
21.41999 598.000
21.47008 549.000
21.52017 577.000
21.57025 621.000
21.62034 624.000
21.67043 619.000
21.72051 622.000
21.77060 594.000
21.82069 583.000
21.87078 637.000
21.92086 653.000
21.97095 656.000
22.02104 578.000
22.07112 584.000
22.12121 615.000
22.17130 614.000
22.22139 624.000
22.27147 632.000
22.32156 655.000
22.37165 629.000
22.42174 637.000
22.47182 625.000
22.52191 601.000
22.57200 589.000
22.62208 660.000
22.67217 641.000
22.72226 613.000
22.77235 677.000
22.82243 689.000
22.87252 677.000
22.92261 629.000
22.97270 654.000
23.02278 605.000
23.07287 628.000
23.12296 598.000
23.17304 616.000
23.22313 651.000
23.27322 680.000
23.32331 613.000
23.37339 649.000
23.42348 576.000
23.47357 624.000
23.52365 661.000
23.57374 679.000
23.62383 632.000
23.67392 642.000
23.72400 609.000
23.77409 627.000
23.82418 592.000
23.87427 647.000
23.92435 593.000
23.97444 592.000
24.02453 606.000
24.07461 602.000
24.12470 593.000
24.17479 630.000
24.22488 606.000
24.27496 587.000
24.32505 670.000
24.37514 607.000
24.42523 606.000
24.47531 591.000
24.52540 594.000
24.57549 591.000
24.62557 583.000
24.67566 657.000
24.72575 666.000
24.77584 728.000
24.82592 712.000
24.87601 778.000
24.92610 850.000
24.97618 879.000
25.02627 832.000
25.07636 865.000
25.12645 796.000
25.17653 686.000
25.22662 624.000
25.27671 600.000
25.32680 605.000
25.37688 601.000
25.42697 560.000
25.47706 602.000
25.52714 567.000
25.57723 581.000
25.62732 580.000
25.67741 553.000
25.72749 562.000
25.77758 558.000
25.82767 561.000
25.87776 550.000
25.92784 547.000
25.97793 538.000
26.02802 548.000
26.07810 594.000
26.12819 545.000
26.17828 540.000
26.22837 508.000
26.27845 541.000
26.32854 573.000
26.37863 532.000
26.42871 526.000
26.47880 505.000
26.52889 572.000
26.57898 536.000
26.62906 561.000
26.67915 542.000
26.72924 526.000
26.77933 520.000
26.82941 543.000
26.87950 543.000
26.92959 586.000
26.97967 505.000
27.02976 533.000
27.07985 509.000
27.12994 544.000
27.18002 503.000
27.23011 442.000
27.28020 496.000
27.33029 487.000
27.38037 492.000
27.43046 444.000
27.48055 465.000
27.53063 475.000
27.58072 483.000
27.63081 503.000
27.68090 463.000
27.73098 445.000
27.78107 507.000
27.83116 475.000
27.88124 483.000
27.93133 472.000
27.98142 484.000
28.03151 485.000
28.08159 462.000
28.13168 439.000
28.18177 487.000
28.23186 457.000
28.28194 466.000
28.33203 476.000
28.38212 481.000
28.43220 496.000
28.48229 525.000
28.53238 545.000
28.58247 616.000
28.63255 777.000
28.68264 883.000
28.73273 956.000
28.78282 1170.000
28.83290 1216.000
28.88299 1188.000
28.93308 979.000
28.98316 791.000
29.03325 714.000
29.08334 613.000
29.13343 517.000
29.18351 446.000
29.23360 473.000
29.28369 419.000
29.33377 372.000
29.38386 393.000
29.43395 410.000
29.48404 359.000
29.53412 421.000
29.58421 395.000
29.63430 369.000
29.68439 404.000
29.73447 418.000
29.78456 403.000
29.83465 411.000
29.88473 373.000
29.93482 417.000
29.98491 403.000
30.03500 415.000
30.08508 354.000
30.13517 352.000
30.18526 371.000
30.23534 388.000
30.28543 378.000
30.33552 359.000
30.38561 360.000
30.43569 397.000
30.48578 389.000
30.53587 386.000
30.58596 393.000
30.63604 354.000
30.68613 354.000
30.73622 416.000
30.78630 362.000
30.83639 358.000
30.88648 365.000
30.93657 385.000
30.98665 366.000
31.03674 362.000
31.08683 345.000
31.13692 358.000
31.18700 351.000
31.23709 397.000
31.28718 335.000
31.33726 345.000
31.38735 351.000
31.43744 356.000
31.48753 371.000
31.53761 373.000
31.58770 365.000
31.63779 332.000
31.68787 342.000
31.73796 321.000
31.78805 339.000
31.83814 324.000
31.88822 340.000
31.93831 349.000
31.98840 361.000
32.03849 382.000
32.08857 386.000
32.13866 401.000
32.18875 414.000
32.23883 446.000
32.28892 438.000
32.33901 444.000
32.38910 430.000
32.43918 395.000
32.48927 406.000
32.53936 361.000
32.58945 333.000
32.63953 331.000
32.68962 350.000
32.73971 334.000
32.78979 294.000
32.83988 334.000
32.88997 311.000
32.94006 315.000
32.99014 323.000
33.04023 276.000
33.09032 308.000
33.14040 318.000
33.19049 277.000
33.24058 270.000
33.29067 313.000
33.34075 311.000
33.39084 269.000
33.44093 295.000
33.49102 298.000
33.54110 306.000
33.59119 273.000
33.64128 284.000
33.69136 304.000
33.74145 302.000
33.79154 283.000
33.84163 254.000
33.89171 272.000
33.94180 301.000
33.99189 271.000
34.04198 284.000
34.09206 300.000
34.14215 292.000
34.19224 307.000
34.24232 261.000
34.29241 283.000
34.34250 283.000
34.39259 280.000
34.44267 296.000
34.49276 269.000
34.54285 261.000
34.59293 291.000
34.64302 289.000
34.69311 290.000
34.74320 268.000
34.79328 278.000
34.84337 270.000
34.89346 266.000
34.94355 262.000
34.99363 256.000
35.04372 253.000
35.09381 317.000
35.14389 263.000
35.19398 273.000
35.24407 279.000
35.29416 278.000
35.34424 259.000
35.39433 292.000
35.44442 301.000
35.49451 295.000
35.54459 281.000
35.59468 292.000
35.64477 255.000
35.69485 254.000
35.74494 273.000
35.79503 254.000
35.84512 282.000
35.89520 251.000
35.94529 256.000
35.99538 253.000
36.04546 242.000
36.09555 250.000
36.14564 274.000
36.19573 260.000
36.24581 245.000
36.29590 244.000
36.34599 252.000
36.39608 207.000
36.44616 260.000
36.49625 239.000
36.54634 204.000
36.59642 246.000
36.64651 221.000
36.69660 227.000
36.74669 230.000
36.79677 230.000
36.84686 251.000
36.89695 260.000
36.94704 246.000
36.99712 234.000
37.04721 236.000
37.09730 233.000
37.14738 242.000
37.19747 226.000
37.24756 207.000
37.29765 226.000
37.34773 224.000
37.39782 229.000
37.44791 268.000
37.49799 236.000
37.54808 216.000
37.59817 217.000
37.64826 211.000
37.69834 241.000
37.74843 242.000
37.79852 221.000
37.84861 209.000
37.89869 207.000
37.94878 232.000
37.99887 193.000
38.04895 250.000
38.09904 214.000
38.14913 237.000
38.19922 217.000
38.24930 210.000
38.29939 202.000
38.34948 220.000
38.39957 223.000
38.44965 215.000
38.49974 217.000
38.54983 206.000
38.59991 196.000
38.65000 217.000
38.70009 207.000
38.75018 206.000
38.80026 224.000
38.85035 215.000
38.90044 232.000
38.95052 211.000
39.00061 213.000
39.05070 209.000
39.10079 208.000
39.15087 207.000
39.20096 166.000
39.25105 208.000
39.30114 198.000
39.35122 194.000
39.40131 214.000
39.45140 204.000
39.50148 239.000
39.55157 195.000
39.60166 227.000
39.65175 206.000
39.70183 214.000
39.75192 225.000
39.80201 209.000
39.85210 205.000
39.90218 205.000
39.95227 211.000
40.00236 195.000
40.05244 227.000
40.10253 212.000
40.15262 201.000
40.20271 205.000
40.25279 215.000
40.30288 222.000
40.35297 217.000
40.40305 231.000
40.45314 209.000
40.50323 198.000
40.55332 190.000
40.60340 217.000
40.65349 227.000
40.70358 239.000
40.75367 213.000
40.80375 254.000
40.85384 262.000
40.90393 251.000
40.95401 256.000
41.00410 258.000
41.05419 225.000
41.10428 259.000
41.15436 242.000
41.20445 276.000
41.25454 276.000
41.30463 263.000
41.35471 265.000
41.40480 244.000
41.45489 232.000
41.50497 231.000
41.55506 220.000
41.60515 207.000
41.65524 220.000
41.70532 210.000
41.75541 221.000
41.80550 229.000
41.85558 231.000
41.90567 209.000
41.95576 213.000
42.00585 208.000
42.05593 203.000
42.10602 229.000
42.15611 211.000
42.20620 207.000
42.25628 219.000
42.30637 179.000
42.35646 218.000
42.40654 254.000
42.45663 197.000
42.50672 210.000
42.55681 225.000
42.60689 211.000
42.65698 226.000
42.70707 207.000
42.75716 248.000
42.80724 201.000
42.85733 204.000
42.90742 196.000
42.95750 227.000
43.00759 225.000
43.05768 225.000
43.10777 233.000
43.15785 214.000
43.20794 221.000
43.25803 247.000
43.30811 243.000
43.35820 209.000
43.40829 236.000
43.45838 219.000
43.50846 261.000
43.55855 258.000
43.60864 244.000
43.65873 244.000
43.70881 255.000
43.75890 254.000
43.80899 280.000
43.85907 271.000
43.90916 224.000
43.95925 267.000
44.00934 222.000
44.05942 227.000
44.10951 240.000
44.15960 238.000
44.20968 209.000
44.25977 213.000
44.30986 217.000
44.35995 200.000
44.41003 214.000
44.46012 195.000
44.51021 233.000
44.56030 187.000
44.61038 218.000
44.66047 189.000
44.71056 202.000
44.76064 236.000
44.81073 236.000
44.86082 220.000
44.91091 221.000
44.96099 232.000
45.01108 208.000
45.06117 253.000
45.11126 233.000
45.16134 220.000
45.21143 227.000
45.26152 238.000
45.31160 210.000
45.36169 244.000
45.41178 201.000
45.46187 189.000
45.51195 200.000
45.56204 195.000
45.61213 220.000
45.66221 199.000
45.71230 220.000
45.76239 198.000
45.81248 211.000
45.86256 214.000
45.91265 199.000
45.96274 208.000
46.01283 214.000
46.06291 205.000
46.11300 219.000
46.16309 196.000
46.21317 202.000
46.26326 202.000
46.31335 205.000
46.36344 189.000
46.41352 208.000
46.46361 183.000
46.51370 195.000
46.56379 189.000
46.61387 174.000
46.66396 197.000
46.71405 210.000
46.76413 185.000
46.81422 194.000
46.86431 166.000
46.91440 166.000
46.96448 191.000
47.01457 192.000
47.06466 172.000
47.11474 194.000
47.16483 194.000
47.21492 193.000
47.26501 171.000
47.31509 207.000
47.36518 204.000
47.41527 171.000
47.46536 178.000
47.51544 174.000
47.56553 199.000
47.61562 191.000
47.66570 196.000
47.71579 206.000
47.76588 188.000
47.81597 189.000
47.86605 176.000
47.91614 184.000
47.96623 175.000
48.01632 176.000
48.06640 182.000
48.11649 183.000
48.16658 221.000
48.21666 196.000
48.26675 189.000
48.31684 207.000
48.36693 215.000
48.41701 175.000
48.46710 188.000
48.51719 198.000
48.56727 196.000
48.61736 191.000
48.66745 197.000
48.71754 183.000
48.76762 179.000
48.81771 222.000
48.86780 194.000
48.91789 168.000
48.96797 191.000
49.01806 187.000
49.06815 180.000
49.11823 178.000
49.16832 174.000
49.21841 181.000
49.26850 165.000
49.31858 196.000
49.36867 202.000
49.41876 152.000
49.46885 184.000
49.51893 211.000
49.56902 197.000
49.61911 186.000
49.66919 204.000
49.71928 171.000
49.76937 159.000
49.81946 143.000
49.86954 202.000
49.91963 190.000
49.96972 193.000
50.01980 196.000
50.06989 186.000
50.11998 172.000
50.17007 179.000
50.22015 176.000
50.27024 194.000
50.32033 191.000
50.37042 181.000
50.42050 200.000
50.47059 172.000
50.52068 205.000
50.57076 185.000
50.62085 202.000
50.67094 182.000
50.72103 187.000
50.77111 200.000
50.82120 205.000
50.87129 201.000
50.92138 195.000
50.97146 194.000
51.02155 201.000
51.07164 185.000
51.12172 190.000
51.17181 172.000
51.22190 195.000
51.27199 198.000
51.32207 170.000
51.37216 187.000
51.42225 181.000
51.47233 177.000
51.52242 177.000
51.57251 153.000
51.62260 180.000
51.67268 168.000
51.72277 176.000
51.77286 186.000
51.82295 205.000
51.87303 166.000
51.92312 171.000
51.97321 178.000
52.02329 170.000
52.07338 185.000
52.12347 180.000
52.17356 171.000
52.22364 167.000
52.27373 188.000
52.32382 172.000
52.37391 148.000
52.42399 186.000
52.47408 187.000
52.52417 179.000
52.57425 165.000
52.62434 171.000
52.67443 190.000
52.72452 181.000
52.77460 179.000
52.82469 186.000
52.87478 163.000
52.92486 187.000
52.97495 159.000
53.02504 156.000
53.07513 171.000
53.12521 147.000
53.17530 189.000
53.22539 164.000
53.27548 155.000
53.32556 168.000
53.37565 179.000
53.42574 172.000
53.47582 160.000
53.52591 173.000
53.57600 183.000
53.62609 169.000
53.67617 174.000
53.72626 154.000
53.77635 150.000
53.82644 185.000
53.87652 175.000
53.92661 151.000
53.97670 166.000
54.02678 173.000
54.07687 154.000
54.12696 186.000
54.17705 167.000
54.22713 154.000
54.27722 163.000
54.32731 177.000
54.37739 158.000
54.42748 169.000
54.47757 160.000
54.52766 169.000
54.57774 166.000
54.62783 167.000
54.67792 168.000
54.72801 155.000
54.77809 165.000
54.82818 165.000
54.87827 180.000
54.92835 151.000
54.97844 199.000
55.02853 157.000
55.07862 158.000
55.12870 165.000
55.17879 161.000
55.22888 164.000
55.27897 176.000
55.32905 184.000
55.37914 147.000
55.42923 176.000
55.47931 168.000
55.52940 137.000
55.57949 173.000
55.62958 160.000
55.67966 153.000
55.72975 155.000
55.77984 145.000
55.82992 145.000
55.88001 192.000
55.93010 183.000
55.98019 149.000
56.03027 183.000
56.08036 156.000
56.13045 154.000
56.18054 162.000
56.23062 161.000
56.28071 172.000
56.33080 175.000
56.38088 183.000
56.43097 158.000
56.48106 176.000
56.53115 134.000
56.58123 140.000
56.63132 150.000
56.68141 161.000
56.73149 157.000
56.78158 158.000
56.83167 158.000
56.88176 160.000
56.93184 169.000
56.98193 155.000
57.03202 180.000
57.08211 144.000
57.13219 164.000
57.18228 177.000
57.23237 159.000
57.28245 142.000
57.33254 168.000
57.38263 143.000
57.43272 171.000
57.48280 132.000
57.53289 154.000
57.58298 172.000
57.63307 155.000
57.68315 160.000
57.73324 156.000
57.78333 179.000
57.83341 143.000
57.88350 154.000
57.93359 165.000
57.98368 173.000
58.03376 172.000
58.08385 169.000
58.13394 152.000
58.18402 158.000
58.23411 155.000
58.28420 169.000
58.33429 152.000
58.38437 172.000
58.43446 152.000
58.48455 154.000
58.53464 173.000
58.58472 148.000
58.63481 181.000
58.68490 160.000
58.73498 190.000
58.78507 172.000
58.83516 180.000
58.88525 204.000
58.93533 164.000
58.98542 153.000
59.03551 184.000
59.08560 151.000
59.13568 174.000
59.18577 182.000
59.23586 145.000
59.28594 182.000
59.33603 153.000
59.38612 168.000
59.43621 158.000
59.48629 172.000
59.53638 156.000
59.58647 139.000
59.63655 176.000
59.68664 173.000
59.73673 149.000
59.78682 150.000
59.83690 149.000
59.88699 166.000
59.93708 151.000
59.98717 136.000