File: data/XRD/sample_2_repeat.xy
10.00010 577.000
10.05019 616.000
10.10027 605.000
10.15036 590.000
10.20045 560.000
10.25054 539.000
10.30062 515.000
10.35071 597.000
10.40080 596.000
10.45089 544.000
10.50097 528.000
10.55106 560.000
10.60115 545.000
10.65123 575.000
10.70132 523.000
10.75141 555.000
10.80150 554.000
10.85158 509.000
10.90167 515.000
10.95176 549.000
11.00184 501.000
11.05193 580.000
11.10202 545.000
11.15211 580.000
11.20219 537.000
11.25228 594.000
11.30237 514.000
11.35246 589.000
11.40254 525.000
11.45263 515.000
11.50272 557.000
11.55280 535.000
11.60289 577.000
11.65298 520.000
11.70307 549.000
11.75315 574.000
11.80324 555.000
11.85333 582.000
11.90342 555.000
11.95350 552.000
12.00359 566.000
12.05368 557.000
12.10376 567.000
12.15385 527.000
12.20394 579.000
12.25403 548.000
12.30411 589.000
12.35420 534.000
12.40429 609.000
12.45437 564.000
12.50446 575.000
12.55455 648.000
12.60464 626.000
12.65472 671.000
12.70481 721.000
12.75490 863.000
12.80499 1105.000
12.85507 1208.000
12.90516 1525.000
12.95525 1696.000
13.00533 1723.000
13.05542 1639.000
13.10551 1435.000
13.15560 1229.000
13.20568 962.000
13.25577 813.000
13.30586 719.000
13.35595 645.000
13.40603 592.000
13.45612 610.000
13.50621 520.000
13.55629 500.000
13.60638 515.000
13.65647 555.000
13.70656 516.000
13.75664 530.000
13.80673 523.000
13.85682 557.000
13.90690 478.000
13.95699 554.000
14.00708 490.000
14.05717 506.000
14.10725 524.000
14.15734 497.000
14.20743 472.000
14.25752 502.000
14.30760 525.000
14.35769 500.000
14.40778 517.000
14.45786 556.000
14.50795 633.000
14.55804 784.000
14.60813 1149.000
14.65821 1638.000
14.70830 1286.000
14.75839 633.000
14.80848 555.000
14.85856 559.000
14.90865 496.000
14.95874 466.000
15.00882 441.000
15.05891 457.000
15.10900 457.000
15.15909 456.000
15.20917 456.000
15.25926 483.000
15.30935 472.000
15.35943 435.000
15.40952 458.000
15.45961 455.000
15.50970 452.000
15.55978 466.000
15.60987 426.000
15.65996 467.000
15.71005 423.000
15.76013 446.000
15.81022 472.000
15.86031 429.000
15.91039 432.000
15.96048 391.000
16.01057 448.000
16.06066 400.000
16.11074 397.000
16.16083 415.000
16.21092 418.000
16.26101 460.000
16.31109 436.000
16.36118 441.000
16.41127 467.000
16.46135 440.000
16.51144 422.000
16.56153 430.000
16.61162 425.000
16.66170 399.000
16.71179 398.000
16.76188 431.000
16.81196 434.000
16.86205 425.000
16.91214 421.000
16.96223 412.000
17.01231 443.000
17.06240 423.000
17.11249 370.000
17.16258 440.000
17.21266 418.000
17.26275 460.000
17.31284 428.000
17.36292 413.000
17.41301 432.000
17.46310 413.000
17.51319 402.000
17.56327 458.000
17.61336 414.000
17.66345 418.000
17.71353 434.000
17.76362 398.000
17.81371 451.000
17.86380 438.000
17.91388 430.000
17.96397 384.000
18.01406 447.000
18.06415 486.000
18.11423 442.000
18.16432 445.000
18.21441 423.000
18.26449 416.000
18.31458 432.000
18.36467 508.000
18.41476 444.000
18.46484 494.000
18.51493 453.000
18.56502 441.000
18.61511 474.000
18.66519 444.000
18.71528 433.000
18.76537 445.000
18.81545 462.000
18.86554 501.000
18.91563 448.000
18.96572 478.000
19.01580 452.000
19.06589 455.000
19.11598 476.000
19.16606 472.000
19.21615 443.000
19.26624 481.000
19.31633 444.000
19.36641 478.000
19.41650 465.000
19.46659 504.000
19.51668 488.000
19.56676 480.000
19.61685 461.000
19.66694 452.000
19.71702 473.000
19.76711 470.000
19.81720 493.000
19.86729 522.000
19.91737 492.000
19.96746 491.000
20.01755 541.000
20.06764 517.000
20.11772 527.000
20.16781 523.000
20.21790 502.000
20.26798 550.000
20.31807 521.000
20.36816 529.000
20.41825 576.000
20.46833 619.000
20.51842 714.000
20.56851 894.000
20.61859 900.000
20.66868 973.000
20.71877 919.000
20.76886 1005.000
20.81894 817.000
20.86903 591.000
20.91912 603.000
20.96921 592.000
21.01929 605.000
21.06938 568.000
21.11947 563.000
21.16955 599.000
21.21964 606.000
21.26973 553.000
21.31982 565.000
21.36990 555.000
21.41999 603.000
21.47008 564.000
21.52017 570.000
21.57025 588.000
21.62034 612.000
21.67043 592.000
21.72051 582.000
21.77060 632.000
21.82069 609.000
21.87078 604.000
21.92086 624.000
21.97095 617.000
22.02104 571.000
22.07112 587.000
22.12121 590.000
22.17130 602.000
22.22139 615.000
22.27147 610.000
22.32156 592.000
22.37165 608.000
22.42174 591.000
22.47182 572.000
22.52191 564.000
22.57200 583.000
22.62208 640.000
22.67217 596.000
22.72226 591.000
22.77235 543.000
22.82243 663.000
22.87252 616.000
22.92261 632.000
22.97270 677.000
23.02278 707.000
23.07287 715.000
23.12296 818.000
23.17304 790.000
23.22313 714.000
23.27322 671.000
23.32331 636.000
23.37339 569.000
23.42348 632.000
23.47357 641.000
23.52365 594.000
23.57374 569.000
23.62383 601.000
23.67392 595.000
23.72400 591.000
23.77409 622.000
23.82418 642.000
23.87427 595.000
23.92435 569.000
23.97444 570.000
24.02453 622.000
24.07461 610.000
24.12470 603.000
24.17479 684.000
24.22488 590.000
24.27496 567.000
24.32505 572.000
24.37514 603.000
24.42523 606.000
24.47531 557.000
24.52540 579.000
24.57549 610.000
24.62557 590.000
24.67566 583.000
24.72575 570.000
24.77584 583.000
24.82592 607.000
24.87601 620.000
24.92610 580.000
24.97618 624.000
25.02627 578.000
25.07636 697.000
25.12645 732.000
25.17653 848.000
25.22662 923.000
25.27671 939.000
25.32680 852.000
25.37688 739.000
25.42697 629.000
25.47706 624.000
25.52714 602.000
25.57723 621.000
25.62732 604.000
25.67741 677.000
25.72749 753.000
25.77758 713.000
25.82767 754.000
25.87776 690.000
25.92784 721.000
25.97793 714.000
26.02802 682.000
26.07810 626.000
26.12819 568.000
26.17828 554.000
26.22837 567.000
26.27845 543.000
26.32854 523.000
26.37863 549.000
26.42871 494.000
26.47880 515.000
26.52889 497.000
26.57898 528.000
26.62906 528.000
26.67915 487.000
26.72924 532.000
26.77933 483.000
26.82941 514.000
26.87950 502.000
26.92959 509.000
26.97967 483.000
27.02976 479.000
27.07985 528.000
27.12994 490.000
27.18002 538.000
27.23011 623.000
27.28020 576.000
27.33029 580.000
27.38037 602.000
27.43046 522.000
27.48055 482.000
27.53063 470.000
27.58072 424.000
27.63081 465.000
27.68090 457.000
27.73098 486.000
27.78107 476.000
27.83116 469.000
27.88124 470.000
27.93133 461.000
27.98142 445.000
28.03151 451.000
28.08159 416.000
28.13168 450.000
28.18177 474.000
28.23186 467.000
28.28194 458.000
28.33203 450.000
28.38212 428.000
28.43220 447.000
28.48229 477.000
28.53238 460.000
28.58247 442.000
28.63255 434.000
28.68264 448.000
28.73273 443.000
28.78282 484.000
28.83290 457.000
28.88299 472.000
28.93308 519.000
28.98316 562.000
29.03325 595.000
29.08334 606.000
29.13343 787.000
29.18351 1083.000
29.23360 1857.000
29.28369 2299.000
29.33377 1741.000
29.38386 1095.000
29.43395 630.000
29.48404 585.000
29.53412 511.000
29.58421 442.000
29.63430 409.000
29.68439 450.000
29.73447 385.000
29.78456 350.000
29.83465 380.000
29.88473 405.000
29.93482 425.000
29.98491 405.000
30.03500 393.000
30.08508 375.000
30.13517 386.000
30.18526 363.000
30.23534 385.000
30.28543 389.000
30.33552 358.000
30.38561 390.000
30.43569 376.000
30.48578 353.000
30.53587 380.000
30.58596 361.000
30.63604 352.000
30.68613 322.000
30.73622 360.000
30.78630 329.000
30.83639 310.000
30.88648 344.000
30.93657 356.000
30.98665 344.000
31.03674 363.000
31.08683 345.000
31.13692 382.000
31.18700 328.000
31.23709 299.000
31.28718 352.000
31.33726 367.000
31.38735 350.000
31.43744 359.000
31.48753 318.000
31.53761 347.000
31.58770 324.000
31.63779 325.000
31.68787 371.000
31.73796 351.000
31.78805 347.000
31.83814 337.000
31.88822 330.000
31.93831 367.000
31.98840 331.000
32.03849 343.000
32.08857 358.000
32.13866 326.000
32.18875 349.000
32.23883 373.000
32.28892 299.000
32.33901 333.000
32.38910 329.000
32.43918 336.000
32.48927 366.000
32.53936 398.000
32.58945 430.000
32.63953 456.000
32.68962 446.000
32.73971 567.000
32.78979 536.000
32.83988 515.000
32.88997 453.000
32.94006 448.000
32.99014 381.000
33.04023 328.000
33.09032 292.000
33.14040 306.000
33.19049 291.000
33.24058 309.000
33.29067 287.000
33.34075 295.000
33.39084 269.000
33.44093 296.000
33.49102 282.000
33.54110 306.000
33.59119 294.000
33.64128 293.000
33.69136 293.000
33.74145 278.000
33.79154 252.000
33.84163 287.000
33.89171 275.000
33.94180 258.000
33.99189 288.000
34.04198 283.000
34.09206 259.000
34.14215 253.000
34.19224 266.000
34.24232 224.000
34.29241 277.000
34.34250 246.000
34.39259 258.000
34.44267 269.000
34.49276 256.000
34.54285 255.000
34.59293 288.000
34.64302 272.000
34.69311 282.000
34.74320 268.000
34.79328 273.000
34.84337 302.000
34.89346 265.000
34.94355 265.000
34.99363 232.000
35.04372 262.000
35.09381 256.000
35.14389 249.000
35.19398 287.000
35.24407 261.000
35.29416 254.000
35.34424 274.000
35.39433 268.000
35.44442 272.000
35.49451 243.000
35.54459 256.000
35.59468 284.000
35.64477 269.000
35.69485 304.000
35.74494 278.000
35.79503 319.000
35.84512 313.000
35.89520 354.000
35.94529 392.000
35.99538 355.000
36.04546 379.000
36.09555 304.000
36.14564 272.000
36.19573 270.000
36.24581 271.000
36.29590 245.000
36.34599 230.000
36.39608 240.000
36.44616 219.000
36.49625 235.000
36.54634 235.000
36.59642 222.000
36.64651 246.000
36.69660 224.000
36.74669 256.000
36.79677 217.000
36.84686 219.000
36.89695 263.000
36.94704 243.000
36.99712 228.000
37.04721 228.000
37.09730 217.000
37.14738 209.000
37.19747 216.000
37.24756 235.000
37.29765 240.000
37.34773 237.000
37.39782 203.000
37.44791 254.000
37.49799 268.000
37.54808 228.000
37.59817 240.000
37.64826 204.000
37.69834 208.000
37.74843 238.000
37.79852 228.000
37.84861 212.000
37.89869 213.000
37.94878 199.000
37.99887 235.000
38.04895 224.000
38.09904 229.000
38.14913 231.000
38.19922 208.000
38.24930 252.000
38.29939 233.000
38.34948 210.000
38.39957 216.000
38.44965 208.000
38.49974 200.000
38.54983 223.000
38.59991 248.000
38.65000 244.000
38.70009 264.000
38.75018 260.000
38.80026 319.000
38.85035 372.000
38.90044 381.000
38.95052 404.000
39.00061 420.000
39.05070 463.000
39.10079 392.000
39.15087 384.000
39.20096 368.000
39.25105 339.000
39.30114 327.000
39.35122 301.000
39.40131 237.000
39.45140 221.000
39.50148 241.000
39.55157 210.000
39.60166 221.000
39.65175 219.000
39.70183 190.000
39.75192 206.000
39.80201 238.000
39.85210 236.000
39.90218 222.000
39.95227 196.000
40.00236 221.000
40.05244 237.000
40.10253 217.000
40.15262 209.000
40.20271 229.000
40.25279 208.000
40.30288 205.000
40.35297 220.000
40.40305 225.000
40.45314 219.000
40.50323 244.000
40.55332 205.000
40.60340 197.000
40.65349 224.000
40.70358 240.000
40.75367 239.000
40.80375 221.000
40.85384 217.000
40.90393 216.000
40.95401 219.000
41.00410 238.000
41.05419 212.000
41.10428 219.000
41.15436 229.000
41.20445 250.000
41.25454 223.000
41.30463 265.000
41.35471 295.000
41.40480 353.000
41.45489 339.000
41.50497 437.000
41.55506 468.000
41.60515 464.000
41.65524 403.000
41.70532 390.000
41.75541 345.000
41.80550 356.000
41.85558 356.000
41.90567 365.000
41.95576 308.000
42.00585 283.000
42.05593 286.000
42.10602 270.000
42.15611 254.000
42.20620 230.000
42.25628 228.000
42.30637 226.000
42.35646 230.000
42.40654 238.000
42.45663 188.000
42.50672 205.000
42.55681 216.000
42.60689 209.000
42.65698 210.000
42.70707 206.000
42.75716 227.000
42.80724 244.000
42.85733 210.000
42.90742 217.000
42.95750 223.000
43.00759 253.000
43.05768 250.000
43.10777 286.000
43.15785 278.000
43.20794 290.000
43.25803 271.000
43.30811 261.000
43.35820 264.000
43.40829 239.000
43.45838 238.000
43.50846 237.000
43.55855 250.000
43.60864 220.000
43.65873 195.000
43.70881 244.000
43.75890 215.000
43.80899 238.000
43.85907 208.000
43.90916 230.000
43.95925 234.000
44.00934 230.000
44.05942 244.000
44.10951 228.000
44.15960 240.000
44.20968 210.000
44.25977 243.000
44.30986 199.000
44.35995 227.000
44.41003 228.000
44.46012 205.000
44.51021 214.000
44.56030 234.000
44.61038 196.000
44.66047 226.000
44.71056 195.000
44.76064 207.000
44.81073 205.000
44.86082 232.000
44.91091 185.000
44.96099 231.000
45.01108 220.000
45.06117 218.000
45.11126 225.000
45.16134 244.000
45.21143 200.000
45.26152 205.000
45.31160 207.000
45.36169 197.000
45.41178 194.000
45.46187 210.000
45.51195 238.000
45.56204 239.000
45.61213 231.000
45.66221 207.000
45.71230 225.000
45.76239 231.000
45.81248 220.000
45.86256 212.000
45.91265 199.000
45.96274 195.000
46.01283 229.000
46.06291 187.000
46.11300 218.000
46.16309 213.000
46.21317 203.000
46.26326 199.000
46.31335 205.000
46.36344 189.000
46.41352 181.000
46.46361 168.000
46.51370 193.000
46.56379 180.000
46.61387 216.000
46.66396 220.000
46.71405 198.000
46.76413 192.000
46.81422 204.000
46.86431 239.000
46.91440 241.000
46.96448 217.000
47.01457 236.000
47.06466 238.000
47.11474 219.000
47.16483 195.000
47.21492 219.000
47.26501 209.000
47.31509 179.000
47.36518 197.000
47.41527 181.000
47.46536 210.000
47.51544 190.000
47.56553 189.000
47.61562 197.000
47.66570 211.000
47.71579 198.000
47.76588 190.000
47.81597 187.000
47.86605 205.000
47.91614 180.000
47.96623 202.000
48.01632 206.000
48.06640 194.000
48.11649 181.000
48.16658 194.000
48.21666 172.000
48.26675 196.000
48.31684 193.000
48.36693 186.000
48.41701 196.000
48.46710 194.000
48.51719 198.000
48.56727 224.000
48.61736 196.000
48.66745 213.000
48.71754 216.000
48.76762 174.000
48.81771 184.000
48.86780 200.000
48.91789 181.000
48.96797 167.000
49.01806 181.000
49.06815 208.000
49.11823 173.000
49.16832 182.000
49.21841 178.000
49.26850 173.000
49.31858 170.000
49.36867 161.000
49.41876 208.000
49.46885 151.000
49.51893 201.000
49.56902 173.000
49.61911 190.000
49.66919 196.000
49.71928 184.000
49.76937 202.000
49.81946 216.000
49.86954 186.000
49.91963 179.000
49.96972 183.000
50.01980 186.000
50.06989 192.000
50.11998 175.000
50.17007 196.000
50.22015 159.000
50.27024 195.000
50.32033 170.000
50.37042 188.000
50.42050 173.000
50.47059 184.000
50.52068 170.000
50.57076 172.000
50.62085 158.000
50.67094 185.000
50.72103 196.000
50.77111 165.000
50.82120 194.000
50.87129 167.000
50.92138 154.000
50.97146 173.000
51.02155 226.000
51.07164 150.000
51.12172 209.000
51.17181 196.000
51.22190 185.000
51.27199 183.000
51.32207 206.000
51.37216 180.000
51.42225 203.000
51.47233 203.000
51.52242 172.000
51.57251 189.000
51.62260 184.000
51.67268 179.000
51.72277 190.000
51.77286 187.000
51.82295 183.000
51.87303 200.000
51.92312 180.000
51.97321 179.000
52.02329 181.000
52.07338 193.000
52.12347 186.000
52.17356 202.000
52.22364 187.000
52.27373 206.000
52.32382 186.000
52.37391 248.000
52.42399 245.000
52.47408 264.000
52.52417 290.000
52.57425 289.000
52.62434 339.000
52.67443 369.000
52.72452 390.000
52.77460 368.000
52.82469 384.000
52.87478 373.000
52.92486 355.000
52.97495 304.000
53.02504 315.000
53.07513 258.000
53.12521 251.000
53.17530 194.000
53.22539 208.000
53.27548 206.000
53.32556 188.000
53.37565 171.000
53.42574 191.000
53.47582 200.000
53.52591 201.000
53.57600 193.000
53.62609 197.000
53.67617 196.000
53.72626 170.000
53.77635 173.000
53.82644 173.000
53.87652 152.000
53.92661 186.000
53.97670 174.000
54.02678 171.000
54.07687 175.000
54.12696 152.000
54.17705 160.000
54.22713 149.000
54.27722 183.000
54.32731 177.000
54.37739 159.000
54.42748 172.000
54.47757 146.000
54.52766 164.000
54.57774 152.000
54.62783 170.000
54.67792 175.000
54.72801 183.000
54.77809 158.000
54.82818 176.000
54.87827 198.000
54.92835 166.000
54.97844 164.000
55.02853 184.000
55.07862 163.000
55.12870 175.000
55.17879 161.000
55.22888 167.000
55.27897 179.000
55.32905 159.000
55.37914 161.000
55.42923 165.000
55.47931 174.000
55.52940 181.000
55.57949 155.000
55.62958 158.000
55.67966 162.000
55.72975 164.000
55.77984 150.000
55.82992 164.000
55.88001 169.000
55.93010 181.000
55.98019 165.000
56.03027 175.000
56.08036 160.000
56.13045 186.000
56.18054 158.000
56.23062 160.000
56.28071 180.000
56.33080 177.000
56.38088 171.000
56.43097 173.000
56.48106 141.000
56.53115 156.000
56.58123 182.000
56.63132 157.000
56.68141 156.000
56.73149 151.000
56.78158 155.000
56.83167 150.000
56.88176 138.000
56.93184 174.000
56.98193 185.000
57.03202 161.000
57.08211 163.000
57.13219 137.000
57.18228 173.000
57.23237 164.000
57.28245 140.000
57.33254 162.000
57.38263 179.000
57.43272 163.000
57.48280 135.000
57.53289 163.000
57.58298 151.000
57.63307 178.000
57.68315 158.000
57.73324 188.000
57.78333 146.000
57.83341 150.000
57.88350 160.000
57.93359 146.000
57.98368 166.000
58.03376 129.000
58.08385 163.000
58.13394 127.000
58.18402 175.000
58.23411 166.000
58.28420 166.000
58.33429 166.000
58.38437 163.000
58.43446 152.000
58.48455 145.000
58.53464 178.000
58.58472 191.000
58.63481 146.000
58.68490 150.000
58.73498 158.000
58.78507 180.000
58.83516 160.000
58.88525 159.000
58.93533 155.000
58.98542 153.000
59.03551 182.000
59.08560 130.000
59.13568 166.000
59.18577 144.000
59.23586 180.000
59.28594 159.000
59.33603 166.000
59.38612 157.000
59.43621 155.000
59.48629 176.000
59.53638 141.000
59.58647 147.000
59.63655 163.000
59.68664 178.000
59.73673 156.000
59.78682 154.000
59.83690 163.000
59.88699 151.000
59.93708 157.000
59.98717 163.000